"Time (s)","Acceleration x (m/s^2)","Acceleration y (m/s^2)","Acceleration z (m/s^2)"
1.389065900E-2,1.556231081E-1,9.557952881E0,1.687912226E0
1.589065900E-2,1.460463107E-1,9.541193008E0,1.673547029E0
1.789065900E-2,1.436520964E-1,9.524434090E0,1.661576033E0
1.989065900E-2,1.484405100E-1,9.514857292E0,1.659181833E0
2.189065900E-2,1.556231081E-1,9.507674217E0,1.656787634E0
2.389065900E-2,1.651999205E-1,9.505280495E0,1.656787634E0
2.589065900E-2,1.795651317E-1,9.500492096E0,1.661576033E0
2.789082500E-2,1.939303428E-1,9.495702744E0,1.666364431E0
2.989096700E-2,2.106897533E-1,9.495702744E0,1.675941229E0
3.189109200E-2,2.298433632E-1,9.500492096E0,1.690306425E0
3.389120300E-2,2.489969730E-1,9.512462616E0,1.714248419E0
3.589130300E-2,2.681505978E-1,9.526827812E0,1.740584612E0
3.789139300E-2,2.849099934E-1,9.548376083E0,1.776497602E0
3.989147600E-2,2.992752194E-1,9.569923401E0,1.812410712E0
4.189155200E-2,3.112462163E-1,9.596260071E0,1.855506301E0
4.389155200E-2,3.208230138E-1,9.622595787E0,1.903390408E0
4.588981800E-2,3.208230138E-1,9.644144058E0,1.948880196E0
4.788819300E-2,2.729389966E-1,9.629778862E0,2.001552582E0
4.988666300E-2,2.154781520E-1,9.605836868E0,2.049436569E0
5.188521800E-2,1.675941199E-1,9.591471672E0,2.090138197E0
5.388379600E-2,1.340752989E-1,9.598653793E0,2.123656988E0
5.588379600E-2,1.101332754E-1,9.627384186E0,2.149993181E0
5.788379600E-2,1.005564705E-1,9.668086052E0,2.166752577E0
5.988379600E-2,9.816227108E-2,9.708786964E0,2.176329374E0
6.188379600E-2,9.337386489E-2,9.761459351E0,2.178723574E0
6.388379600E-2,8.858546615E-2,9.821314812E0,2.181117773E0
6.588379600E-2,8.379705995E-2,9.873987198E0,2.183511972E0
6.788379600E-2,8.140286058E-2,9.919476509E0,2.190694571E0
6.988379600E-2,8.140286058E-2,9.962572098E0,2.200271368E0
7.188379600E-2,8.140286058E-2,9.996091843E0,2.212242365E0
7.388383000E-2,8.379705995E-2,1.002482224E1,2.224213362E0
7.588386300E-2,9.097966552E-2,1.004158115E1,2.238578558E0
7.788389600E-2,1.005564705E-1,1.005355263E1,2.255337954E0
7.988392900E-2,1.149216816E-1,1.005834103E1,2.274491549E0
8.188396200E-2,1.364694983E-1,1.005594635E1,2.296039343E0
8.388399500E-2,1.556231081E-1,1.004876423E1,2.315192938E0
8.588316100E-2,1.771709323E-1,1.003918743E1,2.339135170E0
8.788316100E-2,1.963245422E-1,1.002721596E1,2.363077164E0
8.988312700E-2,2.154781520E-1,1.001524544E1,2.384624958E0
9.188309300E-2,2.322375625E-1,9.998485565E0,2.401384354E0
9.388305900E-2,2.489969730E-1,9.981725693E0,2.415749550E0
9.588302500E-2,2.657563984E-1,9.964966774E0,2.425326347E0
9.788299100E-2,2.801215947E-1,9.943418503E0,2.430114746E0
9.988295700E-2,2.849099934E-1,9.924264908E0,2.430114746E0
1.018829230E-1,2.873041928E-1,9.909899712E0,2.425326347E0
1.038829230E-1,2.873041928E-1,9.890746117E0,2.408566952E0
1.058838230E-1,2.705447972E-1,9.869198799E0,2.387019157E0
1.078847230E-1,2.537853718E-1,9.852438927E0,2.367865562E0
1.098856230E-1,2.346317619E-1,9.835680008E0,2.346317768E0
1.118865230E-1,2.082955539E-1,9.816526413E0,2.322375536E0
1.138874560E-1,1.843535304E-1,9.802161217E0,2.300827742E0
1.158874890E-1,1.556231081E-1,9.792584419E0,2.269703150E0
1.178875220E-1,1.244984865E-1,9.785401344E0,2.238578558E0
1.198875550E-1,9.576806426E-2,9.780612946E0,2.207453966E0
1.218875550E-1,6.703764945E-2,9.778219223E0,2.176329374E0
1.238875550E-1,4.070143029E-2,9.771036148E0,2.142810583E0
1.258866550E-1,1.915361360E-2,9.766247749E0,2.114080191E0
1.278857550E-1,0.000000000E0,9.759065628E0,2.087743998E0
1.298857550E-1,-1.436521020E-2,9.751882553E0,2.066195965E0
1.318857550E-1,-2.633621916E-2,9.744700432E0,2.047042370E0
1.338857210E-1,-3.830722719E-2,9.732728958E0,2.030282974E0
1.358856870E-1,-4.788403213E-2,9.727940559E0,2.015917778E0
1.378856530E-1,-5.506663769E-2,9.725546837E0,2.003946781E0
1.398856190E-1,-6.224924326E-2,9.727940559E0,2.001552582E0
1.418855850E-1,-6.464344263E-2,9.727940559E0,2.001552582E0
1.438855510E-1,-6.464344263E-2,9.730335236E0,2.001552582E0
1.458863840E-1,-6.224924326E-2,9.739912033E0,2.008735180E0
1.478863500E-1,-6.224924326E-2,9.744700432E0,2.023100376E0
1.498863500E-1,-6.703764945E-2,9.751882553E0,2.037465572E0
1.518863830E-1,-7.900865376E-2,9.768642426E0,2.054224968E0
1.538864160E-1,-9.337386489E-2,9.790189743E0,2.075772762E0
1.558864490E-1,-1.101332754E-1,9.809343338E0,2.097320795E0
1.578864820E-1,-1.292868853E-1,9.833285332E0,2.123656988E0
1.598865150E-1,-1.556231081E-1,9.857227325E0,2.157175779E0
1.618865480E-1,-1.867477298E-1,9.881169319E0,2.188300371E0
1.638865810E-1,-2.250549644E-1,9.907505989E0,2.219424963E0
1.658857140E-1,-2.681505978E-1,9.936236382E0,2.240972757E0
1.678848140E-1,-3.112462163E-1,9.962572098E0,2.260126352E0
1.698839140E-1,-3.639186621E-1,9.993697166E0,2.269703150E0
1.718830140E-1,-4.285621047E-1,1.002721596E1,2.269703150E0
1.738829800E-1,-4.884171486E-1,1.005834103E1,2.264914751E0
1.758829460E-1,-5.506663918E-1,1.009185982E1,2.252943754E0
1.778829120E-1,-6.153098345E-1,1.012298393E1,2.233790159E0
1.798828780E-1,-6.727706790E-1,1.015410900E1,2.214636564E0
1.818828780E-1,-7.278373241E-1,1.018044472E1,2.193088770E0
1.838829110E-1,-7.757213712E-1,1.019959831E1,2.171540976E0
1.858838440E-1,-8.188169599E-1,1.021635818E1,2.152387381E0
1.878847770E-1,-8.499416113E-1,1.022354031E1,2.133233786E0
1.898848100E-1,-8.714894056E-1,1.022114658E1,2.116474390E0
1.918848430E-1,-8.906430602E-1,1.021875191E1,2.104503393E0
1.938848760E-1,-9.002198577E-1,1.021156979E1,2.094926596E0
1.958849090E-1,-9.002198577E-1,1.019480991E1,2.092532396E0
1.978849420E-1,-8.954314590E-1,1.017565632E1,2.092532396E0
1.998849420E-1,-8.834604025E-1,1.015171432E1,2.097320795E0
2.018849420E-1,-8.690952063E-1,1.012777233E1,2.102109194E0
2.038849420E-1,-8.523358107E-1,1.010383034E1,2.106897593E0
2.058840750E-1,-8.307880163E-1,1.007509995E1,2.114080191E0
2.078832080E-1,-8.068459630E-1,1.004158115E1,2.118868589E0
2.098823410E-1,-7.829039693E-1,1.000806236E1,2.121262789E0
2.118814410E-1,-7.565677166E-1,9.969755173E0,2.121262789E0
2.138805410E-1,-7.302315235E-1,9.931447983E0,2.114080191E0
2.158805070E-1,-7.086837292E-1,9.897929192E0,2.104503393E0
2.178804730E-1,-6.871358752E-1,9.869198799E0,2.090138197E0
2.198804390E-1,-6.655880809E-1,9.840468407E0,2.073378563E0
2.218804050E-1,-6.512228847E-1,9.814131737E0,2.056619167E0
2.238803710E-1,-6.392518282E-1,9.792584419E0,2.039859772E0
2.258812040E-1,-6.320692301E-1,9.766247749E0,2.020706177E0
2.278820700E-1,-6.296750307E-1,9.744700432E0,2.003946781E0
2.298829700E-1,-6.272808313E-1,9.725546837E0,1.982398987E0
2.318838700E-1,-6.248866320E-1,9.708786964E0,1.960851192E0
2.338839030E-1,-6.272808313E-1,9.694421768E0,1.939303398E0
2.358839360E-1,-6.272808313E-1,9.682451248E0,1.917755604E0
2.378839690E-1,-6.248866320E-1,9.672874451E0,1.896207690E0
2.398840020E-1,-6.272808313E-1,9.665691376E0,1.874659896E0
2.418840350E-1,-6.272808313E-1,9.660902977E0,1.855506301E0
2.438840350E-1,-6.272808313E-1,9.660902977E0,1.836352706E0
2.458831350E-1,-6.248866320E-1,9.660902977E0,1.817199111E0
2.478822350E-1,-6.200982332E-1,9.665691376E0,1.798045516E0
2.498813350E-1,-6.153098345E-1,9.672874451E0,1.781286120E0
2.518804350E-1,-6.105214357E-1,9.677662849E0,1.769315004E0
2.538804010E-1,-6.033388376E-1,9.680056572E0,1.762132406E0
2.558803670E-1,-5.937620401E-1,9.684844971E0,1.757344007E0
2.578803330E-1,-5.841852427E-1,9.687239647E0,1.754949808E0
2.598803330E-1,-5.722141862E-1,9.689633369E0,1.752555609E0
2.618803660E-1,-5.578489900E-1,9.696816444E0,1.750161409E0
2.638803990E-1,-5.434837937E-1,9.703998566E0,1.742978811E0
2.658812990E-1,-5.291185975E-1,9.708786964E0,1.738190413E0
2.678821990E-1,-5.171475410E-1,9.718363762E0,1.740584612E0
2.698830990E-1,-5.027823448E-1,9.732728958E0,1.747767210E0
2.718839990E-1,-4.884171486E-1,9.747094154E0,1.757344007E0
2.738848990E-1,-4.716577232E-1,9.761459351E0,1.766920805E0
2.758849320E-1,-4.596867263E-1,9.778219223E0,1.778891921E0
2.778849320E-1,-4.477157295E-1,9.790189743E0,1.788468719E0
2.798849320E-1,-4.405331016E-1,9.799766541E0,1.793257117E0
2.818849320E-1,-4.333505034E-1,9.814131737E0,1.790862918E0
2.838849320E-1,-4.285621047E-1,9.826103210E0,1.788468719E0
2.858840650E-1,-4.285621047E-1,9.835680008E0,1.781286120E0
2.878840650E-1,-4.333505034E-1,9.847650528E0,1.778891921E0
2.898840310E-1,-4.405331016E-1,9.857227325E0,1.776497602E0
2.918839970E-1,-4.429273009E-1,9.869198799E0,1.776497602E0
2.938839630E-1,-4.453215301E-1,9.881169319E0,1.769315004E0
2.958839290E-1,-4.501099288E-1,9.888352394E0,1.764526606E0
2.978838950E-1,-4.525041282E-1,9.900322914E0,1.757344007E0
2.998838610E-1,-4.572925270E-1,9.909899712E0,1.745373011E0
3.018838270E-1,-4.668693244E-1,9.919476509E0,1.728613615E0
3.038837930E-1,-4.788403511E-1,9.926659584E0,1.704671621E0
3.058846590E-1,-4.908113480E-1,9.936236382E0,1.678335428E0
3.078855250E-1,-4.979939461E-1,9.945813179E0,1.651999116E0
3.098864250E-1,-5.051765442E-1,9.952995300E0,1.623268723E0
3.118873250E-1,-5.099649429E-1,9.962572098E0,1.599326730E0
3.138873580E-1,-5.099649429E-1,9.972148895E0,1.584961534E0
3.158873910E-1,-5.027823448E-1,9.979331970E0,1.577778935E0
3.178874240E-1,-4.860229492E-1,9.988908768E0,1.582567334E0
3.198874570E-1,-4.668693244E-1,9.993697166E0,1.589749932E0
3.218874570E-1,-4.357447028E-1,9.996091843E0,1.599326730E0
3.238874230E-1,-3.950432837E-1,1.000088024E1,1.616086125E0
3.258865230E-1,-3.519476354E-1,1.000806236E1,1.630451322E0
3.278856230E-1,-2.992752194E-1,1.001285076E1,1.644816518E0
3.298855890E-1,-2.394201756E-1,1.001763916E1,1.661576033E0
3.318855550E-1,-1.795651317E-1,1.002242756E1,1.675941229E0
3.338855210E-1,-1.173158810E-1,1.002961063E1,1.695094824E0
3.358854870E-1,-5.506663769E-2,1.003918743E1,1.723825216E0
3.378854870E-1,2.394201700E-3,1.005355263E1,1.750161409E0
3.398854870E-1,5.506663769E-2,1.007031155E1,1.783680320E0
3.418854870E-1,1.101332754E-1,1.009425354E1,1.821987510E0
3.438854870E-1,1.628057212E-1,1.011819553E1,1.865083098E0
3.458863530E-1,2.082955539E-1,1.014213753E1,1.905784607E0
3.478863530E-1,2.513911724E-1,1.017086792E1,1.944091797E0
3.498863530E-1,2.873041928E-1,1.019720459E1,1.980004787E0
3.518863530E-1,3.280056417E-1,1.022354031E1,2.023100376E0
3.538863530E-1,3.687070608E-1,1.024987698E1,2.070984364E0
3.558863860E-1,4.022258818E-1,1.027142429E1,2.111685991E0
3.578864190E-1,4.309563041E-1,1.028818417E1,2.152387381E0
3.598864520E-1,4.548983276E-1,1.029536629E1,2.193088770E0
3.618864850E-1,4.764461517E-1,1.030015469E1,2.229001760E0
3.638865180E-1,4.979939461E-1,1.029776096E1,2.262520552E0
3.658856840E-1,5.219359994E-1,1.029057789E1,2.296039343E0
3.678848500E-1,5.434837937E-1,1.028100109E1,2.322375536E0
3.698839830E-1,5.674257874E-1,1.026903057E1,2.346317768E0
3.718830830E-1,5.961562395E-1,1.025945377E1,2.367865562E0
3.738830490E-1,6.248866320E-1,1.025466537E1,2.384624958E0
3.758830150E-1,6.584054828E-1,1.024987698E1,2.398990154E0
3.778829810E-1,7.038952708E-1,1.024748230E1,2.413355350E0
3.798829470E-1,7.493851185E-1,1.024987698E1,2.425326347E0
3.818829130E-1,8.068459630E-1,1.025466537E1,2.434903145E0
3.838820130E-1,8.762778044E-1,1.026663589E1,2.446874142E0
3.858825130E-1,9.433154464E-1,1.028100109E1,2.458845139E0
3.878834130E-1,1.019929886E0,1.030254936E1,2.477998734E0
3.898834460E-1,1.106121182E0,1.032409668E1,2.504334927E0
3.918834790E-1,1.185129881E0,1.034564495E1,2.528276920E0
3.938835120E-1,1.264138460E0,1.036479855E1,2.552218914E0
3.958835450E-1,1.340752959E0,1.038395214E1,2.578555346E0
3.978835780E-1,1.410184860E0,1.039831734E1,2.602497339E0
3.998836110E-1,1.474828243E0,1.041268253E1,2.621650934E0
4.018836110E-1,1.537077546E0,1.042704773E1,2.633621931E0
4.038836110E-1,1.592144132E0,1.044141293E1,2.640804529E0
4.058827440E-1,1.642422318E0,1.046296024E1,2.638410330E0
4.078818770E-1,1.685518026E0,1.048690319E1,2.628833532E0
4.098810100E-1,1.719036818E0,1.050845051E1,2.614468336E0
4.118801430E-1,1.738190413E0,1.053239250E1,2.595314741E0
4.138792760E-1,1.740584612E0,1.055633450E1,2.573766708E0
4.158792420E-1,1.726219416E0,1.058027649E1,2.554613113E0
4.178792080E-1,1.709460020E0,1.060900688E1,2.535459518E0
4.198791740E-1,1.678335428E0,1.063773727E1,2.516305923E0
4.218791400E-1,1.640028119E0,1.066167927E1,2.499546528E0
4.238791060E-1,1.601720929E0,1.069040966E1,2.482787132E0
4.258799390E-1,1.553836942E0,1.072153473E1,2.463633537E0
4.278807720E-1,1.501164436E0,1.074787045E1,2.444479942E0
4.298816050E-1,1.450886250E0,1.076941872E1,2.422932148E0
4.318824710E-1,1.400607944E0,1.079096603E1,2.387019157E0
4.338825040E-1,1.343147159E0,1.080772591E1,2.336740971E0
4.358825370E-1,1.290474772E0,1.082448483E1,2.286462545E0
4.378825700E-1,1.242590666E0,1.083885002E1,2.224213362E0
4.398826030E-1,1.194706678E0,1.084842682E1,2.152387381E0
4.418826360E-1,1.156399369E0,1.085321522E1,2.085349798E0
4.438835690E-1,1.118092179E0,1.085321522E1,2.011129379E0
4.458831020E-1,1.084573388E0,1.085321522E1,1.941697598E0
4.478822350E-1,1.053448796E0,1.085560989E1,1.867477298E0
4.498813350E-1,1.029506683E0,1.085800362E1,1.790862918E0
4.518806010E-1,1.015141487E0,1.086039829E1,1.721431017E0
4.538805670E-1,1.005564690E0,1.086518669E1,1.654393315E0
4.558805330E-1,1.007958889E0,1.087476349E1,1.592144132E0
4.578804990E-1,1.017535686E0,1.088673401E1,1.539471745E0
4.598806320E-1,1.031900883E0,1.089870548E1,1.498770237E0
4.618806320E-1,1.060631394E0,1.091546440E1,1.470039845E0
4.638806320E-1,1.098938584E0,1.093461800E1,1.458068848E0
4.658815320E-1,1.134851575E0,1.095616627E1,1.458068848E0
4.678824320E-1,1.175553083E0,1.098010826E1,1.474828243E0
4.698833320E-1,1.221042871E0,1.100883865E1,1.513135433E0
4.718842320E-1,1.259350061E0,1.103756905E1,1.556231141E0
4.738851320E-1,1.288080573E0,1.107587624E1,1.620874524E0
4.758851650E-1,1.316810966E0,1.112136650E1,1.702277422E0
4.778851980E-1,1.338358760E0,1.116446209E1,1.778891921E0
4.798851980E-1,1.357512355E0,1.121234608E1,1.855506301E0
4.818851980E-1,1.374271750E0,1.126980686E1,1.920149803E0
4.838851980E-1,1.383848548E0,1.132966137E1,1.968033791E0
4.858843310E-1,1.388636947E0,1.140627575E1,1.989581585E0
4.878843310E-1,1.383848548E0,1.149246788E1,1.982398987E0
4.898836640E-1,1.374271750E0,1.157865906E1,1.968033791E0
4.918836640E-1,1.357512355E0,1.167682076E1,1.939303398E0
4.938836300E-1,1.333570361E0,1.177977180E1,1.903390408E0
4.958835960E-1,1.309628367E0,1.187075138E1,1.869871497E0
4.978835620E-1,1.285686255E0,1.196412563E1,1.831564307E0
4.998835280E-1,1.261744261E0,1.205989361E1,1.778891921E0
5.018834940E-1,1.247379065E0,1.214847851E1,1.726219416E0
5.038834600E-1,1.240196466E0,1.224424648E1,1.663970232E0
5.058842930E-1,1.237802267E0,1.234240913E1,1.587355733E0
5.078851260E-1,1.240196466E0,1.243578243E1,1.513135433E0
5.098859920E-1,1.240196466E0,1.253633976E1,1.429338455E0
5.118867250E-1,1.242590666E0,1.263928986E1,1.340752959E0
5.138867580E-1,1.247379065E0,1.273505783E1,1.261744261E0
5.158867910E-1,1.254561663E0,1.283800888E1,1.180341482E0
5.178868240E-1,1.268926859E0,1.294574833E1,1.094150186E0
5.198866900E-1,1.283292055E0,1.304391003E1,1.010353088E0
5.218867230E-1,1.304839969E0,1.315883160E1,9.145850539E-1
5.238867560E-1,1.328781962E0,1.327854156E1,8.068459630E-1
5.258858560E-1,1.347935557E0,1.338867474E1,7.062895298E-1
5.278849560E-1,1.364694953E0,1.351077938E1,5.937620401E-1
5.298849220E-1,1.379060149E0,1.364006615E1,4.668693244E-1
5.318848880E-1,1.388636947E0,1.376217079E1,3.447650373E-1
5.338848540E-1,1.386242747E0,1.389385128E1,2.059013397E-1
5.358848200E-1,1.374271750E0,1.403271580E1,5.267243832E-2
5.378847860E-1,1.357512355E0,1.415960789E1,-8.619125932E-2
5.398847860E-1,1.326387763E0,1.428650093E1,-2.394201756E-1
5.418847860E-1,1.283292055E0,1.442057610E1,-3.998316824E-1
5.438848190E-1,1.240196466E0,1.454268074E1,-5.458779931E-1
5.458857190E-1,1.192312479E0,1.466717911E1,-6.991068721E-1
5.478857520E-1,1.146822572E0,1.479676533E1,-8.571242094E-1
5.498864520E-1,1.108515382E0,1.491408062E1,-1.000776291E0
5.518864850E-1,1.084573388E0,1.503857899E1,-1.151610970E0
5.538865180E-1,1.072602391E0,1.517265511E1,-1.314416766E0
5.558865510E-1,1.067813993E0,1.529475880E1,-1.467645645E0
5.578865840E-1,1.077390790E0,1.543122864E1,-1.640028119E0
5.598865840E-1,1.096544385E0,1.558924580E1,-1.831564307E0
5.618865840E-1,1.118092179E0,1.574008083E1,-2.013523579E0
5.638865840E-1,1.149216771E0,1.590288639E1,-2.219424963E0
5.658857170E-1,1.182735682E0,1.607766342E1,-2.451662540E0
5.678848500E-1,1.211466074E0,1.623807526E1,-2.674323320E0
5.698839830E-1,1.230619669E0,1.641524506E1,-2.920926094E0
5.718833490E-1,1.237802267E0,1.660438728E1,-3.181894064E0
5.738833150E-1,1.240196466E0,1.677916336E1,-3.428496838E0
5.758832810E-1,1.237802267E0,1.697548866E1,-3.703830004E0
5.778832470E-1,1.240196466E0,1.718139076E1,-4.000710964E0
5.798832130E-1,1.242590666E0,1.737292671E1,-4.271255970E0
5.818831790E-1,1.249773264E0,1.758361626E1,-4.541800499E0
5.838831450E-1,1.264138460E0,1.780627632E1,-4.829104900E0
5.858840110E-1,1.276109457E0,1.801217842E1,-5.044882298E0
5.878848770E-1,1.295263171E0,1.822765541E1,-5.329792023E0
5.898849100E-1,1.321599364E0,1.844552803E1,-5.712864399E0
5.918849430E-1,1.340752959E0,1.864424706E1,-6.062417984E0
5.938855760E-1,1.355118155E0,1.885254288E1,-6.404788971E0
5.958856090E-1,1.371877551E0,1.906323242E1,-6.787860870E0
5.978860420E-1,1.388636947E0,1.925237465E1,-7.161356449E0
5.998860750E-1,1.403002143E0,1.944869804E1,-7.580341816E0
6.018861080E-1,1.412579060E0,1.964981270E1,-8.018480301E0
6.038861080E-1,1.422155857E0,1.983416557E1,-8.492532730E0
6.058852080E-1,1.441309452E0,2.002809525E1,-8.940248489E0
6.078843080E-1,1.462857246E0,2.023639107E1,-9.440636635E0
6.098834080E-1,1.489193439E0,2.043271637E1,-9.917082787E0
6.118825080E-1,1.522712231E0,2.064101219E1,-1.045577812E1
6.138824740E-1,1.549048543E0,2.086127853E1,-1.105193424E1
6.158824400E-1,1.565807939E0,2.106239128E1,-1.169836903E1
6.178824060E-1,1.575384736E0,2.127786827E1,-1.230170727E1
6.198824060E-1,1.575384736E0,2.149095345E1,-1.295293045E1
6.218824390E-1,1.582567334E0,2.170403671E1,-1.364006615E1
6.238824720E-1,1.601720929E0,2.189317894E1,-1.426734734E1
6.258833720E-1,1.673547029E0,2.207274437E1,-1.490689850E1
6.278842720E-1,1.817199111E0,2.223554993E1,-1.552939034E1
6.298851720E-1,1.980004787E0,2.237201881E1,-1.608245087E1
6.318858050E-1,2.214636564E0,2.247257614E1,-1.663790703E1
6.338858380E-1,2.509123325E0,2.253003693E1,-1.720772552E1
6.358858710E-1,2.791639090E0,2.255876732E1,-1.775599861E1
6.378858710E-1,3.112462282E0,2.253722000E1,-1.838806725E1
6.398858710E-1,3.462015629E0,2.245581627E1,-1.907520294E1
6.418858710E-1,3.782838583E0,2.235765457E1,-1.971206093E1
6.438858710E-1,4.103661537E0,2.220203018E1,-2.038961983E1
6.458850040E-1,4.402936935E0,2.203683090E1,-2.101450729E1
6.478841370E-1,4.654327869E0,2.180459404E1,-2.167291260E1
6.498832370E-1,4.853046894E0,2.151010704E1,-2.234568214E1
6.518823370E-1,4.973056316E0,2.121562004E1,-2.302084732E1
6.538808370E-1,5.028122902E0,2.086127853E1,-2.362897491E1
6.558804030E-1,4.963479519E0,2.046144676E1,-2.424667931E1
6.578799690E-1,4.769249916E0,2.001851845E1,-2.485989380E1
6.598799350E-1,4.534617901E0,1.960432243E1,-2.541056061E1
6.618790010E-1,4.156333923E0,1.917097092E1,-2.598756218E1
6.638789670E-1,3.560178041E0,1.875677490E1,-2.675610161E1
6.658798330E-1,2.913743496E0,1.838806725E1,-2.756294823E1
6.678807330E-1,2.212242365E0,1.797147560E1,-2.840570641E1
6.698816330E-1,1.534683347E0,1.751897240E1,-2.909523773E1
6.718825330E-1,9.193734527E-1,1.709759331E1,-2.961717224E1
6.738825660E-1,2.466027737E-1,1.662833023E1,-3.003137016E1
6.758825990E-1,-4.764461517E-1,1.607766342E1,-3.049345016E1
6.778826320E-1,-1.144428372E0,1.553417873E1,-3.098904991E1
6.798826650E-1,-1.790862918E0,1.485901451E1,-3.164266777E1
6.818826650E-1,-2.331952572E0,1.404708099E1,-3.232740784E1
6.838826310E-1,-2.772485495E0,1.325459957E1,-3.290919876E1
6.858817310E-1,-3.155557871E0,1.232086086E1,-3.336888504E1
6.878816970E-1,-3.507505417E0,1.125544167E1,-3.365619278E1
6.898816630E-1,-3.811569214E0,1.024030018E1,-3.382139206E1
6.918816290E-1,-4.084507942E0,9.093477249E0,-3.379505539E1
6.938815950E-1,-4.311957359E0,7.824550629E0,-3.360112381E1
6.958820610E-1,-4.489128113E0,6.639420509E0,-3.335691452E1
6.978820610E-1,-4.599261284E0,5.365705490E0,-3.298102570E1
6.998820940E-1,-4.611232281E0,4.031835556E0,-3.249739838E1
7.018821270E-1,-4.563348293E0,2.815581083E0,-3.201137543E1
7.038821600E-1,-4.369418144E0,1.553836942E0,-3.142240143E1
7.058830600E-1,-4.022258759E0,2.849099934E-1,-3.074484253E1
7.078839600E-1,-3.634398222E0,-8.738836050E-1,-3.009601402E1
7.098848600E-1,-3.095702887E0,-2.075772762E0,-2.933705139E1
7.118862930E-1,-2.425326347E0,-3.294421434E0,-2.845119667E1
7.138871930E-1,-1.771709204E0,-4.388571739E0,-2.758449554E1
7.158875930E-1,-1.007958889E0,-5.492598057E0,-2.654541206E1
7.178875930E-1,-1.484405100E-1,-6.584353924E0,-2.534352303E1
7.198875930E-1,6.560112834E-1,-7.558794022E0,-2.419400597E1
7.218884930E-1,1.513135433E0,-8.518868446E0,-2.289634895E1
7.238884930E-1,2.387019157E0,-9.450213432E0,-2.147419357E1
7.258876260E-1,3.174711466E0,-1.026424217E1,-2.013822937E1
7.278867260E-1,3.938461781E0,-1.102559853E1,-1.863227654E1
7.298866920E-1,4.671087742E0,-1.171991634E1,-1.696112251E1
7.318866580E-1,5.303455830E0,-1.231128407E1,-1.539531517E1
7.338866240E-1,5.870882034E0,-1.283322048E1,-1.370231533E1
7.358865900E-1,6.356904984E0,-1.325699425E1,-1.193778896E1
7.378865560E-1,6.759130478E0,-1.358260536E1,-1.033127975E1
7.398865220E-1,7.120655060E0,-1.379090118E1,-8.662521362E0
7.418864880E-1,7.393594265E0,-1.386033249E1,-6.943484306E0
7.438864880E-1,7.582736015E0,-1.385793877E1,-5.377676487E0
7.458873880E-1,7.664138794E0,-1.373104572E1,-3.756502390E0
7.478874210E-1,7.623437405E0,-1.350359726E1,-2.123656988E0
7.498874540E-1,7.537246227E0,-1.326178265E1,-6.655880809E-1
7.518874870E-1,7.348104477E0,-1.296729565E1,7.613561153E-1
7.538875200E-1,7.082347870E0,-1.266323185E1,2.145204782E0
7.558870530E-1,6.814197540E0,-1.240944672E1,3.373430252E0
7.578870860E-1,6.495768547E0,-1.222748756E1,4.618414879E0
7.598870860E-1,6.160580158E0,-1.217720890E1,5.894824028E0
7.618870520E-1,5.858911037E0,-1.221072769E1,7.063194275E0
7.638870180E-1,5.574000835E0,-1.243099403E1,8.303390503E0
7.658861180E-1,5.298667431E0,-1.281406689E1,9.591471672E0
7.678852180E-1,5.042488098E0,-1.321868706E1,1.076463032E1
7.698843180E-1,4.738125324E0,-1.371189213E1,1.197849083E1
7.718837510E-1,4.355052948E0,-1.422904015E1,1.323544598E1
7.738837170E-1,3.964797974E0,-1.469112110E1,1.439184570E1
7.758837170E-1,3.497928619E0,-1.514631844E1,1.564431286E1
7.778837500E-1,2.992752075E0,-1.556530380E1,1.699464226E1
7.798837830E-1,2.530671120E0,-1.591725159E1,1.825638580E1
7.818838160E-1,2.049436569E0,-1.623328590E1,1.965699387E1
7.838838490E-1,1.563413739E0,-1.652537918E1,2.125153351E1
7.858847490E-1,1.106121182E0,-1.679352951E1,2.279818726E1
7.878856490E-1,7.158663273E-1,-1.710238075E1,2.463005066E1
7.898856820E-1,3.950432837E-1,-1.748305893E1,2.673216057E1
7.918857150E-1,2.082955539E-1,-1.785416031E1,2.903298759E1
7.938857150E-1,1.364694983E-1,-1.823005104E1,3.114227867E1
7.958857150E-1,4.022258818E-1,-1.850777817E1,3.333057785E1
7.978857150E-1,1.165976286E0,-1.869213104E1,3.564367676E1
7.998853150E-1,2.138022184E0,-1.875677490E1,3.784155655E1
8.043035760E-1,3.775655985E0,-1.880226517E1,4.034349442E1
8.063035760E-1,5.995380402E0,-1.888366699E1,4.332427597E1
8.083026760E-1,8.205228806E0,-1.895309830E1,4.610184860E1
8.103017760E-1,1.072153473E1,-1.894112778E1,4.890546036E1
8.123008760E-1,1.302954483E1,-1.884775352E1,5.132360458E1
8.142999760E-1,1.542883396E1,-1.855805588E1,5.349275208E1
8.162990760E-1,1.771290207E1,-1.802893829E1,5.527433777E1
8.182990420E-1,1.972882080E1,-1.725321579E1,5.653368759E1
8.202990080E-1,2.137363625E1,-1.642961121E1,5.738602066E1
8.222989740E-1,2.263777542E1,-1.533306599E1,5.763741302E1
8.242989740E-1,2.342067909E1,-1.397764874E1,5.727349472E1
8.262990070E-1,2.387078857E1,-1.263450146E1,5.667494583E1
8.282999070E-1,2.378220367E1,-1.101841545E1,5.554248810E1
8.303008070E-1,2.315252876E1,-9.186851501E0,5.397907257E1
8.323017070E-1,2.233850098E1,-7.470208645E0,5.240338898E1
8.343017400E-1,2.102169037E1,-5.574000835E0,5.054309464E1
8.363017730E-1,1.926195145E1,-3.557783842E0,4.851760101E1
8.383018060E-1,1.748545265E1,-1.709460020E0,4.663336182E1
8.403011390E-1,1.531391239E1,2.202665508E-1,4.453843689E1
8.423007390E-1,1.282364368E1,2.195482969E0,4.217506027E1
8.443011390E-1,1.046535492E1,3.983951569E0,3.991014481E1
8.463011050E-1,7.891588211E0,5.822998047E0,3.731483078E1
8.483002050E-1,5.236418247E0,7.484573841E0,3.442263412E1
8.502993050E-1,2.853888512E0,9.153332710E0,3.171449280E1
8.522984050E-1,5.003881454E-1,1.073589993E1,2.880075073E1
8.542975050E-1,-1.721431017E0,1.218678570E1,2.581757545E1
8.562975050E-1,-3.629609823E0,1.343177128E1,2.312619209E1
8.582975380E-1,-5.281908035E0,1.449000835E1,2.047102356E1
8.602975710E-1,-6.682516098E0,1.530912399E1,1.798344803E1
8.622980040E-1,-7.798214436E0,1.590528011E1,1.587176132E1
8.642980370E-1,-8.629002571E0,1.619497871E1,1.407581139E1
8.662980700E-1,-9.141361237E0,1.615188408E1,1.269675064E1
8.682989700E-1,-9.466972351E0,1.596992397E1,1.166245556E1
8.702998700E-1,-9.486125946E0,1.547911263E1,1.105672264E1
8.723003700E-1,-9.179668427E0,1.470099735E1,1.086039829E1
8.743012360E-1,-8.743924141E0,1.388188076E1,1.086279202E1
8.763021020E-1,-7.961019993E0,1.284279728E1,1.118361568E1
8.783021020E-1,-6.850110531E0,1.165287876E1,1.179174232E1
8.803021020E-1,-5.710470200E0,1.053478718E1,1.245972538E1
8.823021020E-1,-4.288015366E0,9.330503464E0,1.335276222E1
8.843021020E-1,-2.628833532E0,8.073547363E0,1.438945103E1
8.863020680E-1,-9.145850539E-1,6.852504730E0,1.549826622E1
8.883011340E-1,6.464344859E-1,5.775113583E0,1.650382996E1
8.903011000E-1,2.260126352E0,4.733336926E0,1.750700188E1
8.923010660E-1,3.715801001E0,3.821146011E0,1.839046097E1
8.943010320E-1,5.162198067E0,2.949656487E0,1.922125053E1
8.963009980E-1,6.543652534E0,2.121262789E0,1.998021126E1
8.983009640E-1,7.738358974E0,1.391031146E0,2.061706924E1
9.003015970E-1,8.825326920E0,6.703764796E-1,2.116773605E1
9.023019630E-1,9.773430824E0,-3.591302410E-2,2.162981606E1
9.043015630E-1,1.055394077E1,-6.655880809E-1,2.199852371E1
9.063011960E-1,1.119798088E1,-1.268926859E0,2.228822136E1
9.083032960E-1,1.170794582E1,-1.857900500E0,2.250130653E1
9.103041960E-1,1.210298920E1,-2.382230759E0,2.264974594E1
9.123050960E-1,1.232804394E1,-2.896984100E0,2.270720673E1
9.143059960E-1,1.248606110E1,-3.438073635E0,2.269284248E1
9.163060290E-1,1.257225227E1,-3.921702385E0,2.265692902E1
9.183060290E-1,1.253155136E1,-4.400542736E0,2.256595039E1
9.203059950E-1,1.237592793E1,-4.872200489E0,2.245102882E1
9.223059610E-1,1.219157410E1,-5.289090633E0,2.233610535E1
9.243059270E-1,1.192102909E1,-5.681739807E0,2.219245338E1
9.263058930E-1,1.162414837E1,-6.048052788E0,2.201288986E1
9.283049930E-1,1.136557484E1,-6.371270180E0,2.183571815E1
9.303040930E-1,1.111178970E1,-6.682516098E0,2.160587502E1
9.323044590E-1,1.089631081E1,-6.977003098E0,2.132575226E1
9.343044590E-1,1.071914005E1,-7.228394032E0,2.105042076E1
9.363044920E-1,1.057788277E1,-7.455843449E0,2.071762657E1
9.383046920E-1,1.045577812E1,-7.654561996E0,2.034652519E1
9.403047250E-1,1.034564495E1,-7.812579632E0,2.000415421E1
9.423047580E-1,1.024269390E1,-7.922712803E0,1.964262962E1
9.443047910E-1,1.012777233E1,-7.972990990E0,1.924519157E1
9.463048240E-1,1.001763916E1,-7.982567787E0,1.886451340E1
9.483057570E-1,9.893140793E0,-7.903559208E0,1.842398071E1
9.503057900E-1,9.751882553E0,-7.721599579E0,1.792598724E1
9.523057900E-1,9.620202065E0,-7.506121635E0,1.745193481E1
9.543057900E-1,9.481337547E0,-7.180510044E0,1.692281532E1
9.563057900E-1,9.340080261E0,-6.771101475E0,1.636496735E1
9.583057900E-1,9.213187218E0,-6.368875980E0,1.585260773E1
9.603057900E-1,9.095871925E0,-5.897218227E0,1.531151867E1
9.623057900E-1,8.990526199E0,-5.392041683E0,1.475606346E1
9.643057560E-1,8.904335022E0,-4.929960728E0,1.425777054E1
9.663061220E-1,8.837297440E0,-4.465186119E0,1.375977612E1
9.683040220E-1,8.787019730E0,-4.015076160E0,1.326178265E1
9.703031220E-1,8.746317863E0,-3.622427225E0,1.281646061E1
9.723022220E-1,8.712799072E0,-3.251325846E0,1.238071632E1
9.743013220E-1,8.674491882E0,-2.901772499E0,1.196651936E1
9.763012880E-1,8.621819496E0,-2.600103140E0,1.160020638E1
9.783012540E-1,8.564358711E0,-2.308010340E0,1.123868179E1
9.803012540E-1,8.482955933E0,-2.015917778E0,1.088912868E1
9.823012870E-1,8.391976357E0,-1.752555609E0,1.056112289E1
9.843013200E-1,8.305785179E0,-1.467645645E0,1.027621269E1
9.863013530E-1,8.217199326E0,-1.158793569E0,9.998485565E0
9.883022530E-1,8.131008148E0,-8.690952063E-1,9.713575363E0
9.903031530E-1,8.061576843E0,-5.530605912E-1,9.452607155E0
9.923031860E-1,8.008903503E0,-2.130839527E-1,9.172486305E0
9.943032190E-1,7.970596790E0,1.364694983E-1,8.885181427E0
9.963032190E-1,7.944260597E0,4.525041282E-1,8.624214172E0
9.983030190E-1,7.925107002E0,7.733271718E-1,8.348880768E0
1.000302985E0,7.903559208E0,1.082179189E0,8.059182167E0
1.002302951E0,7.882011414E0,1.350329757E0,7.786243439E0
1.004302917E0,7.850886822E0,1.594538331E0,7.477391243E0
1.006302883E0,7.803002834E0,1.802833915E0,7.123049259E0
1.008301983E0,7.755118370E0,1.970427990E0,6.787860870E0
1.010301083E0,7.692869186E0,2.097320795E0,6.407183170E0
1.012300216E0,7.623437405E0,2.188300371E0,6.045658588E0
1.014299349E0,7.556399822E0,2.236184359E0,5.645826817E0
1.016299349E0,7.479785442E0,2.243366957E0,5.217264652E0
1.018299349E0,7.398382664E0,2.214636564E0,4.766855717E0
1.020299349E0,7.321768284E0,2.173935175E0,4.352658749E0
1.022299349E0,7.240365028E0,2.104503393E0,3.904942989E0
1.024299349E0,7.156568050E0,2.013523579E0,3.438073635E0
1.026299349E0,7.082347870E0,1.922544003E0,3.009511471E0
1.028300215E0,7.022492886E0,1.821987510E0,2.554613113E0
1.030301115E0,6.984185696E0,1.716642618E0,2.063801765E0
1.032302015E0,6.962637901E0,1.623268723E0,1.604115129E0
1.034302915E0,6.974608898E0,1.537077546E0,1.101332784E0
1.036302948E0,7.008127689E0,1.470039845E0,5.530605912E-1
1.038302981E0,7.041646481E0,1.419761658E0,4.070143029E-2
1.040303014E0,7.072771072E0,1.388636947E0,-5.075707436E-1
1.042303014E0,7.091924667E0,1.388636947E0,-1.086967587E0
1.044303014E0,7.099107265E0,1.403002143E0,-1.616086125E0
1.046302980E0,7.079953671E0,1.453280449E0,-2.183511972E0
1.048302080E0,7.024887085E0,1.549048543E0,-2.729389906E0
1.050301180E0,6.960243702E0,1.656787634E0,-3.282450438E0
1.052300280E0,6.852504730E0,1.819593310E0,-3.909731388E0
1.054299446E0,6.701669693E0,2.032677174E0,-4.532223701E0
1.056298546E0,6.543652534E0,2.252943754E0,-5.097554684E0
1.058298546E0,6.340145588E0,2.535459518E0,-5.684134007E0
1.060298546E0,6.095936775E0,2.861071110E0,-6.275501728E0
1.062298579E0,5.858911037E0,3.172317266E0,-6.814197540E0
1.064298612E0,5.574000835E0,3.529053211E0,-7.374440670E0
1.066298645E0,5.243600845E0,3.919308186E0,-7.958625793E0
1.068299545E0,4.922778130E0,4.280832767E0,-8.494926453E0
1.070300445E0,4.551377296E0,4.666299343E0,-9.059958458E0
1.072301345E0,4.139574528E0,5.061641693E0,-9.636960983E0
1.074302245E0,3.756502390E0,5.415983677E0,-1.015889740E1
1.076302245E0,3.347094059E0,5.767930984E0,-1.068083286E1
1.078302245E0,2.942473888E0,6.107907772E0,-1.118122101E1
1.080302245E0,2.585737944E0,6.402394772E0,-1.161457157E1
1.082302245E0,2.240972757E0,6.675333500E0,-1.200243282E1
1.084302245E0,1.934514999E0,6.912359715E0,-1.233043766E1
1.086302245E0,1.683123827E0,7.108684063E0,-1.259380054E1
1.088301378E0,1.484405041E0,7.269095421E0,-1.279970169E1
1.090301344E0,1.357512355E0,7.388805866E0,-1.296729565E1
1.092301310E0,1.278503656E0,7.477391243E0,-1.310376549E1
1.094301276E0,1.273715258E0,7.520486832E0,-1.322108078E1
1.096301242E0,1.338358760E0,7.520486832E0,-1.333600235E1
1.098301208E0,1.424550056E0,7.503727436E0,-1.344134808E1
1.100301174E0,1.558625340E0,7.455843449E0,-1.354669285E1
1.102301140E0,1.733402014E0,7.386411667E0,-1.367837334E1
1.104301106E0,1.900996208E0,7.314585686E0,-1.380047798E1
1.106301106E0,2.104503393E0,7.233182430E0,-1.394652462E1
1.108302006E0,2.334346771E0,7.151779652E0,-1.411172390E1
1.110302906E0,2.557007313E0,7.087136269E0,-1.426734734E1
1.112303806E0,2.813186884E0,7.044040680E0,-1.444451809E1
1.114304639E0,3.086126089E0,7.027281284E0,-1.464084244E1
1.116305539E0,3.337517262E0,7.032069683E0,-1.482549572E1
1.118305572E0,3.605667830E0,7.079953671E0,-1.502900219E1
1.120305605E0,3.883395195E0,7.173327446E0,-1.523969269E1
1.122305605E0,4.137180328E0,7.281066418E0,-1.542883396E1
1.124305571E0,4.398148537E0,7.436689854E0,-1.562037086E1
1.126305537E0,4.654327869E0,7.637802601E0,-1.580711842E1
1.128304637E0,4.879383087E0,7.843704224E0,-1.596752930E1
1.130303737E0,5.092766285E0,8.083124161E0,-1.609921074E1
1.132303703E0,5.289090633E0,8.339303970E0,-1.619019127E1
1.134303669E0,5.456685066E0,8.573935509E0,-1.624765205E1
1.136303669E0,5.602731228E0,8.818143845E0,-1.624046898E1
1.138303669E0,5.734412193E0,9.067141533E0,-1.616864204E1
1.140303702E0,5.849334240E0,9.289801598E0,-1.607766342E1
1.142303735E0,5.961861610E0,9.510068893E0,-1.592922211E1
1.144303768E0,6.067206383E0,9.723152161E0,-1.574008083E1
1.146303801E0,6.158185959E0,9.912294388E0,-1.555572701E1
1.148304701E0,6.244377136E0,1.009185982E1,-1.535221958E1
1.150304734E0,6.325780392E0,1.025945377E1,-1.512955952E1
1.152304767E0,6.397606373E0,1.040549946E1,-1.492126369E1
1.154304767E0,6.467038155E0,1.054196930E1,-1.468872643E1
1.156304767E0,6.529287338E0,1.066407394E1,-1.442536449E1
1.158304767E0,6.579565525E0,1.076941872E1,-1.417397308E1
1.160304767E0,6.620266914E0,1.086039829E1,-1.390582275E1
1.162304767E0,6.648997307E0,1.094180107E1,-1.363288403E1
1.164304767E0,6.656179905E0,1.101123333E1,-1.338628101E1
1.166304767E0,6.648997307E0,1.107348251E1,-1.313967800E1
1.168303867E0,6.617872715E0,1.112376022E1,-1.288828659E1
1.170302967E0,6.574777126E0,1.116685581E1,-1.265844345E1
1.172302067E0,6.512527943E0,1.120037460E1,-1.240944672E1
1.174302033E0,6.435913563E0,1.122192287E1,-1.213890171E1
1.176301999E0,6.349722385E0,1.123389339E1,-1.185399151E1
1.178301965E0,6.270713329E0,1.123149967E1,-1.159062958E1
1.180301931E0,6.186916351E0,1.121234608E1,-1.131769085E1
1.182301897E0,6.095936775E0,1.118361568E1,-1.103278065E1
1.184301897E0,6.016928196E0,1.115009689E1,-1.077420712E1
1.186301930E0,5.935525417E0,1.110221291E1,-1.051563358E1
1.188302830E0,5.854122639E0,1.103996372E1,-1.025705910E1
1.190303730E0,5.782296181E0,1.097771454E1,-1.002242756E1
1.192303763E0,5.705681801E0,1.089152241E1,-9.785401344E0
1.194303796E0,5.636250019E0,1.078378391E1,-9.548376083E0
1.196303829E0,5.576395035E0,1.068083286E1,-9.337685585E0
1.198303862E0,5.518934250E0,1.056830597E1,-9.126996040E0
1.200303862E0,5.463867664E0,1.044380665E1,-8.918700218E0
1.202303828E0,5.415983677E0,1.033127975E1,-8.731952667E0
1.204303794E0,5.375282288E0,1.021875191E1,-8.538022995E0
1.206303760E0,5.339369297E0,1.011101341E1,-8.341697693E0
1.208302860E0,5.308244228E0,1.002003384E1,-8.162133217E0
1.210301960E0,5.284302235E0,9.945813179E0,-7.975385189E0
1.212301060E0,5.267542839E0,9.890746117E0,-7.805397034E0
1.214300160E0,5.253177643E0,9.857227325E0,-7.625831604E0
1.216300160E0,5.229235649E0,9.835680008E0,-7.439084053E0
1.218300193E0,5.205293655E0,9.828496933E0,-7.245153427E0
1.220300226E0,5.183745861E0,9.826103210E0,-7.067982674E0
1.222300259E0,5.157409668E0,9.830891609E0,-6.876446724E0
1.224300292E0,5.126285076E0,9.840468407E0,-6.677727699E0
1.226300325E0,5.095160484E0,9.850045204E0,-6.498162746E0
1.228301225E0,5.064035892E0,9.859622002E0,-6.309020519E0
1.230302125E0,5.030517101E0,9.871592522E0,-6.122272968E0
1.232302991E0,5.001786709E0,9.878775597E0,-5.957073212E0
1.234302991E0,4.973056316E0,9.885957718E0,-5.796661377E0
1.236302991E0,4.941931725E0,9.888352394E0,-5.648221016E0
1.238302991E0,4.910807133E0,9.890746117E0,-5.516540051E0
1.240302991E0,4.881777287E0,9.893140793E0,-5.380070686E0
1.242302991E0,4.853046894E0,9.900322914E0,-5.229235649E0
1.244302991E0,4.829104900E0,9.907505989E0,-5.087977886E0
1.246302957E0,4.812345505E0,9.919476509E0,-4.922778130E0
1.248302057E0,4.790797710E0,9.938630104E0,-4.721365929E0
1.250301157E0,4.764461517E0,9.957783699E0,-4.522646904E0
1.252300257E0,4.728548527E0,9.979331970E0,-4.288015366E0
1.254299357E0,4.680664539E0,1.000566864E1,-4.027047157E0
1.256298423E0,4.630385876E0,1.002961063E1,-3.782838583E0
1.258298389E0,4.563348293E0,1.005355263E1,-3.529053211E0
1.260298355E0,4.481945515E0,1.007749462E1,-3.268085241E0
1.262298555E0,4.402936935E0,1.009904194E1,-3.033453465E0
1.264298588E0,4.323928356E0,1.012059021E1,-2.796427488E0
1.266298621E0,4.240131378E0,1.014453220E1,-2.561795712E0
1.268299521E0,4.165910721E0,1.016847420E1,-2.351106167E0
1.270300421E0,4.101267338E0,1.019241619E1,-2.130839586E0
1.272301321E0,4.041412354E0,1.022593498E1,-1.896207690E0
1.274302254E0,3.993528366E0,1.026184750E1,-1.678335428E0
1.276302287E0,3.952826977E0,1.030733776E1,-1.448492050E0
1.278302287E0,3.921702385E0,1.036719227E1,-1.216254473E0
1.280302253E0,3.895366192E0,1.042704773E1,-1.007958889E0
1.282302219E0,3.869029999E0,1.049647999E1,-7.996633649E-1
1.284302185E0,3.837905407E0,1.057788277E1,-6.033388376E-1
1.286302151E0,3.806780815E0,1.065449715E1,-4.309563041E-1
1.288301251E0,3.770867586E0,1.074068832E1,-2.681505978E-1
1.290301217E0,3.742137194E0,1.082927322E1,-1.125274822E-1
1.292301217E0,3.715801001E0,1.091067600E1,2.154781483E-2
1.294301217E0,3.687070608E0,1.099447346E1,1.484405100E-1
1.296301250E0,3.665522814E0,1.108066463E1,2.729389966E-1
1.298301283E0,3.648763418E0,1.115967369E1,3.830722570E-1
1.300301316E0,3.639186621E0,1.123628807E1,4.908113480E-1
1.302301349E0,3.634398222E0,1.131050777E1,5.937620401E-1
1.304301382E0,3.632004023E0,1.137994003E1,6.823474765E-1
1.306301415E0,3.632004023E0,1.145176601E1,7.661445141E-1
1.308302315E0,3.634398222E0,1.152119827E1,8.379706144E-1
1.310303215E0,3.636792421E0,1.158344746E1,9.002198577E-1
1.312304081E0,3.632004023E0,1.164090824E1,9.576807022E-1
1.314304947E0,3.622427225E0,1.169118595E1,1.007958889E0
1.316305847E0,3.610456228E0,1.173428154E1,1.053448796E0
1.318305847E0,3.586514235E0,1.177019501E1,1.098938584E0
1.320305847E0,3.548206806E0,1.179653072E1,1.144428372E0
1.322305647E0,3.509899616E0,1.181568432E1,1.187524080E0
1.324305613E0,3.452438831E0,1.182526112E1,1.235408068E0
1.326305579E0,3.375824451E0,1.182765579E1,1.285686255E0
1.328304679E0,3.299209833E0,1.182765579E1,1.333570361E0
1.330303779E0,3.203441858E0,1.181807899E1,1.386242747E0
1.332303745E0,3.090914488E0,1.180131912E1,1.438915253E0
1.334303711E0,2.985569477E0,1.178456020E1,1.486799240E0
1.336303677E0,2.865859509E0,1.176780033E1,1.532289028E0
1.338303643E0,2.734178305E0,1.174625301E1,1.572990537E0
1.340303643E0,2.607285738E0,1.172231102E1,1.604115129E0
1.342303676E0,2.470816135E0,1.169836903E1,1.625662923E0
1.344303709E0,2.324769735E0,1.167442703E1,1.635239720E0
1.346303742E0,2.171540976E0,1.165287876E1,1.635239720E0
1.348304642E0,2.030282974E0,1.163133144E1,1.613691926E0
1.350304675E0,1.877054095E0,1.160738945E1,1.570596337E0
1.352304708E0,1.719036818E0,1.158823586E1,1.520318031E0
1.354305974E0,1.575384736E0,1.157387066E1,1.453280449E0
1.356305974E0,1.429338455E0,1.156189919E1,1.369483352E0
1.358305940E0,1.280897856E0,1.155232239E1,1.278503656E0
1.360305906E0,1.149216771E0,1.154514027E1,1.194706678E0
1.362305872E0,1.019929886E0,1.154035187E1,1.103726983E0
1.364305838E0,8.978256583E-1,1.153556347E1,1.005564690E0
1.366305804E0,7.924807668E-1,1.153316879E1,9.169792533E-1
1.368304904E0,6.991068721E-1,1.153556347E1,8.307880163E-1
1.370304004E0,6.224924326E-1,1.153556347E1,7.565677166E-1
1.372303137E0,5.626373887E-1,1.153077507E1,6.919242740E-1
1.374302303E0,5.171475410E-1,1.152359200E1,6.344634295E-1
1.376302336E0,4.932055473E-1,1.151162148E1,5.865794420E-1
1.378302369E0,4.812345505E-1,1.149486160E1,5.458779931E-1
1.380302402E0,4.932055473E-1,1.146134281E1,5.123591423E-1
1.382302435E0,5.243301988E-1,1.141345882E1,4.884171486E-1
1.384302468E0,5.602431893E-1,1.136078644E1,4.716577232E-1
1.386302501E0,6.129156351E-1,1.129135418E1,4.596867263E-1
1.388303401E0,6.751648784E-1,1.120995140E1,4.596867263E-1
1.390304267E0,7.326257229E-1,1.112854862E1,4.644751251E-1
1.392304267E0,7.900865674E-1,1.103517532E1,4.836287498E-1
1.394304267E0,8.451532125E-1,1.093222427E1,5.123591423E-1
1.396304267E0,8.954314590E-1,1.083406162E1,5.434837937E-1
1.398304267E0,9.433154464E-1,1.073350525E1,5.817909837E-1
1.400304267E0,1.048660398E0,1.065449715E1,6.057330370E-1
1.402304233E0,1.256955862E0,1.061858368E1,5.985504389E-1
1.404304199E0,1.680729628E0,1.063534355E1,5.578489900E-1
1.406304165E0,2.003946781E0,1.063534355E1,6.057330370E-1
1.408303265E0,2.233790159E0,1.062576675E1,6.967126727E-1
1.410302365E0,2.377442360E0,1.059224796E1,8.331822157E-1
1.412301465E0,2.454056740E0,1.055394077E1,9.672574997E-1
1.414299331E0,2.492363930E0,1.049887371E1,1.082179189E0
1.416299297E0,2.485181332E0,1.043901825E1,1.173158884E0
1.418299297E0,2.449268341E0,1.038634586E1,1.242590666E0
1.420299330E0,2.408566952E0,1.034325027E1,1.295263171E0
1.422299363E0,2.355894566E0,1.030973148E1,1.319205165E0
1.424299396E0,2.296039343E0,1.029057789E1,1.316810966E0
1.426299429E0,2.236184359E0,1.028339577E1,1.290474772E0
1.428300329E0,2.181117773E0,1.028100109E1,1.259350061E0
1.430301229E0,2.130839586E0,1.029536629E1,1.213860273E0
1.432302129E0,2.082955360E0,1.031212616E1,1.173158884E0
1.434302995E0,2.023100376E0,1.034085655E1,1.139639974E0
1.436302961E0,1.920149803E0,1.039113426E1,1.127668977E0
1.438302927E0,1.793257117E0,1.044620132E1,1.125274777E0
1.440302893E0,1.697489023E0,1.052281570E1,1.106121182E0
1.442302859E0,1.723825216E0,1.058985329E1,1.041477680E0
1.444302825E0,1.721431017E0,1.063055515E1,1.003170490E0
1.446302791E0,1.654393315E0,1.065210247E1,1.010353088E0
1.448301891E0,1.558625340E0,1.067604446E1,1.027112484E0
1.450301024E0,1.455674648E0,1.069759274E1,1.041477680E0
1.452300190E0,1.340752959E0,1.071195793E1,1.041477680E0
1.454299356E0,1.209071875E0,1.070956326E1,1.036689281E0
1.456298522E0,1.067813993E0,1.068801594E1,1.039083481E0
1.458298555E0,7.924807668E-1,1.060182476E1,1.067813993E0
1.460298588E0,3.687070608E-1,1.042704773E1,1.103726983E0
1.462298621E0,-4.070143029E-2,1.023551178E1,1.113303781E0
1.464298654E0,-3.854664862E-1,1.002482224E1,1.017535686E0
1.466298687E0,-5.698199868E-1,9.854833603E0,7.900865674E-1
1.468299553E0,-6.727706790E-1,9.727940559E0,5.482721925E-1
1.470300419E0,-7.062895298E-1,9.651326180E0,2.896983922E-1
1.472301285E0,-7.038952708E-1,9.617807388E0,6.224924326E-2
1.474302151E0,-6.847416759E-1,9.603442192E0,-1.197100878E-1
1.476302151E0,-6.512228847E-1,9.610625267E0,-2.561795712E-1
1.478302151E0,-6.200982332E-1,9.617807388E0,-3.303998411E-1
1.480302117E0,-5.985504389E-1,9.622595787E0,-3.687070608E-1
1.482302083E0,-5.889736414E-1,9.622595787E0,-3.495534360E-1
1.484302049E0,-5.817909837E-1,9.617807388E0,-2.968810201E-1
1.486302015E0,-5.722141862E-1,9.610625267E0,-2.394201756E-1
1.488301115E0,-5.554547906E-1,9.601048470E0,-1.699883193E-1
1.490301081E0,-5.315127969E-1,9.591471672E0,-1.005564705E-1
1.492301047E0,-5.075707436E-1,9.584288597E0,-4.070143029E-2
1.494301013E0,-4.788403511E-1,9.569923401E0,1.675941236E-2
1.496301013E0,-4.429273009E-1,9.553164482E0,6.464344263E-2
1.498301046E0,-4.118026793E-1,9.538799286E0,1.005564705E-1
1.500301079E0,-3.878606856E-1,9.531616211E0,1.149216816E-1
1.502301112E0,-3.663128614E-1,9.531616211E0,1.197100878E-1
1.504301145E0,-3.471592367E-1,9.534010887E0,1.221042871E-1
1.506301178E0,-3.208230138E-1,9.541193008E0,1.292868853E-1
1.508302078E0,-2.968810201E-1,9.548376083E0,1.388636976E-1
1.510302978E0,-2.777273953E-1,9.557952881E0,1.508347094E-1
1.512303844E0,-2.561795712E-1,9.569923401E0,1.723825186E-1
1.514304677E0,-2.418143749E-1,9.581894875E0,1.987187415E-1
1.516305510E0,-2.322375625E-1,9.591471672E0,2.226607651E-1
1.518305476E0,-2.346317619E-1,9.591471672E0,2.466027737E-1
1.520305442E0,-2.418143749E-1,9.579500198E0,2.753331959E-1
1.522305408E0,-2.537853718E-1,9.565135002E0,3.040636182E-1
1.524305374E0,-2.729389966E-1,9.536404610E0,3.495534360E-1
1.526305340E0,-2.920926213E-1,9.495702744E0,4.046200812E-1
1.528304506E0,-3.064578176E-1,9.452607155E0,4.596867263E-1
1.530303672E0,-3.088520169E-1,9.402329445E0,5.147533417E-1
1.532303705E0,-2.873041928E-1,9.347262383E0,5.626373887E-1
1.534303738E0,-2.513911724E-1,9.294589996E0,6.009446383E-1
1.536303771E0,-2.035071403E-1,9.234735489E0,6.320692301E-1
1.538303804E0,-1.053448766E-1,9.174880028E0,6.560112834E-1
1.540303837E0,3.351882473E-2,9.122207642E0,6.727706790E-1
1.542303870E0,1.675941199E-1,9.064746857E0,6.943184733E-1
1.544303903E0,3.136404157E-1,9.004891396E0,7.230489254E-1
1.546303903E0,4.668693244E-1,8.954613686E0,7.661445141E-1
1.548304769E0,6.105214357E-1,8.909123421E0,8.092401624E-1
1.550304769E0,7.661445141E-1,8.870816231E0,8.619126081E-1
1.552304769E0,9.289502501E-1,8.837297440E0,9.289502501E-1
1.554304769E0,1.074996591E0,8.801384926E0,9.935936928E-1
1.556304769E0,1.209071875E0,8.772654533E0,1.077390790E0
1.558304735E0,1.319205165E0,8.753500938E0,1.187524080E0
1.560304701E0,1.405396342E0,8.741529465E0,1.297657371E0
1.562304667E0,1.455674648E0,8.739135742E0,1.434126854E0
1.564304633E0,1.474828243E0,8.748712540E0,1.582567334E0
1.566304599E0,1.479616642E0,8.763077736E0,1.716642618E0
1.568303699E0,1.462857246E0,8.779836655E0,1.843535304E0
1.570302799E0,1.438915253E0,8.798990250E0,1.944091797E0
1.572301899E0,1.403002143E0,8.832509041E0,2.018311977E0
1.574301032E0,1.367089152E0,8.882787704E0,2.059013367E0
1.576301065E0,1.323993564E0,8.937853813E0,2.066195965E0
1.578301098E0,1.280897856E0,8.992920876E0,2.059013367E0
1.580301131E0,1.235408068E0,9.052776337E0,2.023100376E0
1.582301164E0,1.194706678E0,9.112630844E0,1.968033791E0
1.584301197E0,1.161187768E0,9.165303230E0,1.912967205E0
1.586301230E0,1.130063176E0,9.210793495E0,1.855506301E0
1.588302096E0,1.098938584E0,9.244312286E0,1.793257117E0
1.590302962E0,1.067813993E0,9.265859604E0,1.738190413E0
1.592302928E0,1.031900883E0,9.268254280E0,1.683123827E0
1.594302894E0,9.911994934E-1,9.251494408E0,1.630451322E0
1.596302860E0,9.481038451E-1,9.222764015E0,1.584961534E0
1.598302826E0,8.882488012E-1,9.167697906E0,1.551442742E0
1.600302792E0,8.116343617E-1,9.093477249E0,1.525106430E0
1.602302758E0,7.302315235E-1,9.021651268E0,1.505952835E0
1.604302724E0,6.344634295E-1,8.937853813E0,1.486799240E0
1.606302724E0,5.243301988E-1,8.844480515E0,1.470039845E0
1.608301890E0,4.189853072E-1,8.760683060E0,1.450886250E0
1.610301056E0,3.064578176E-1,8.674491882E0,1.422155857E0
1.612300222E0,1.891419291E-1,8.585906982E0,1.383848548E0
1.614299388E0,8.140286058E-2,8.504503250E0,1.343147159E0
1.616299354E0,-2.873042040E-2,8.423100471E0,1.292868972E0
1.618299387E0,-1.388636976E-1,8.353669167E0,1.228225470E0
1.620299420E0,-2.370259613E-1,8.298602104E0,1.168370485E0
1.622299453E0,-3.351882398E-1,8.255506516E0,1.101332784E0
1.624299453E0,-4.453215301E-1,8.224382401E0,1.034295082E0
1.626299453E0,-5.650315881E-1,8.205228806E0,9.768342972E-1
1.628300319E0,-6.991068721E-1,8.207622528E0,9.169792533E-1
1.630301185E0,-8.068459630E-1,8.226776123E0,8.643068075E-1
1.632302051E0,-8.930372596E-1,8.248324394E0,8.259995580E-1
1.634302917E0,-9.552865028E-1,8.281843185E0,8.259995580E-1
1.636302883E0,-9.792284966E-1,8.329727173E0,8.762778044E-1
1.638302849E0,-9.888052940E-1,8.380004883E0,9.433154464E-1
1.640302815E0,-9.935936928E-1,8.439860344E0,1.043871999E0
1.642302781E0,-1.015141487E0,8.518868446E0,1.168370485E0
1.644302747E0,-1.039083481E0,8.600272179E0,1.283292055E0
1.646302713E0,-1.060631394E0,8.691251755E0,1.405396342E0
1.648301813E0,-1.086967587E0,8.784625053E0,1.532289028E0
1.650300913E0,-1.120486379E0,8.868422508E0,1.647210717E0
1.652300046E0,-1.180341482E0,8.957007408E0,1.754949808E0
1.654299212E0,-1.283292055E0,9.057564735E0,1.853112102E0
1.656298378E0,-1.393425345E0,9.155726433E0,1.936909199E0
1.658298411E0,-1.522712231E0,9.265859604E0,2.008735180E0
1.660298444E0,-1.671152830E0,9.378387451E0,2.066195965E0
1.662298477E0,-1.812410712E0,9.476549149E0,2.114080191E0
1.664298510E0,-1.989581585E0,9.574711800E0,2.164358377E0
1.666298543E0,-2.200271368E0,9.672874451E0,2.219424963E0
1.668299409E0,-2.406172752E0,9.761459351E0,2.274491549E0
1.670300242E0,-2.633621931E0,9.838073730E0,2.341529369E0
1.672301075E0,-2.851494312E0,9.888352394E0,2.406172752E0
1.674301908E0,-3.031059265E0,9.921871185E0,2.466027737E0
1.676301941E0,-3.167528868E0,9.936236382E0,2.535459518E0
1.678301907E0,-3.265691042E0,9.938630104E0,2.621650934E0
1.680301873E0,-3.344699860E0,9.936236382E0,2.707842112E0
1.682301839E0,-3.404554844E0,9.933841705E0,2.803610086E0
1.684301839E0,-3.430891037E0,9.936236382E0,2.892195702E0
1.686301872E0,-3.438073635E0,9.943418503E0,2.964021683E0
1.688301038E0,-3.411737442E0,9.955389977E0,3.026270866E0
1.690301071E0,-3.368641853E0,9.972148895E0,3.078943491E0
1.692301104E0,-3.325546265E0,9.991303444E0,3.126827478E0
1.694301137E0,-3.284844637E0,1.001045704E1,3.174711466E0
1.696301170E0,-3.234566450E0,1.002721596E1,3.217807055E0
1.698301203E0,-3.181894064E0,1.003918743E1,3.256114244E0
1.700301236E0,-3.122039080E0,1.003918743E1,3.292027235E0
1.702301236E0,-3.047818661E0,1.001045704E1,3.344699860E0
1.704301236E0,-2.968810081E0,9.969755173E0,3.402160645E0
1.706301236E0,-2.851494312E0,9.907505989E0,3.473986626E0
1.708302102E0,-2.703053713E0,9.838073730E0,3.541024208E0
1.710302968E0,-2.568978310E0,9.773430824E0,3.591302633E0
1.712303834E0,-2.454056740E0,9.715970039E0,3.608062029E0
1.714304667E0,-2.379836559E0,9.660902977E0,3.581725836E0
1.716305500E0,-2.331952572E0,9.620202065E0,3.541024208E0
1.718305466E0,-2.317587137E0,9.593865395E0,3.466804028E0
1.720305432E0,-2.308010340E0,9.586683273E0,3.375824451E0
1.722305398E0,-2.286462545E0,9.586683273E0,3.294421434E0
1.724305364E0,-2.252943754E0,9.593865395E0,3.224989653E0
1.726305330E0,-2.190694571E0,9.608230591E0,3.165134668E0
1.728304430E0,-2.121262789E0,9.622595787E0,3.112462282E0
1.730303563E0,-2.037465572E0,9.636960983E0,3.057395458E0
1.732303596E0,-1.956062794E0,9.648932457E0,2.992752075E0
1.734303629E0,-1.893813491E0,9.651326180E0,2.916137695E0
1.736303662E0,-1.857900500E0,9.641749382E0,2.839523315E0
1.738303695E0,-1.853112102E0,9.617807388E0,2.753331900E0
1.740303728E0,-1.848323703E0,9.596260071E0,2.671929121E0
1.742303761E0,-1.843535304E0,9.577106476E0,2.607285738E0
1.744303794E0,-1.841141105E0,9.560346603E0,2.568978310E0
1.746303794E0,-1.838746905E0,9.545981407E0,2.552218914E0
1.748304627E0,-1.841141105E0,9.534010887E0,2.547430515E0
1.750304593E0,-1.853112102E0,9.529222488E0,2.554613113E0
1.752304559E0,-1.874659896E0,9.531616211E0,2.566584110E0
1.754304525E0,-1.903390408E0,9.538799286E0,2.576161146E0
1.756304491E0,-1.946485996E0,9.550769806E0,2.578555346E0
1.758304457E0,-2.008735180E0,9.557952881E0,2.566584110E0
1.760304423E0,-2.070984364E0,9.562741280E0,2.547430515E0
1.762304423E0,-2.133233786E0,9.569923401E0,2.506729126E0
1.764304456E0,-2.205059767E0,9.574711800E0,2.454056740E0
1.766304489E0,-2.272097349E0,9.574711800E0,2.401384354E0
1.768303655E0,-2.346317768E0,9.574711800E0,2.346317768E0
1.770302821E0,-2.425326347E0,9.574711800E0,2.300827742E0
1.772301987E0,-2.494758129E0,9.572318077E0,2.279279947E0
1.774302020E0,-2.557007313E0,9.569923401E0,2.281674147E0
1.776302053E0,-2.619256735E0,9.557952881E0,2.296039343E0
1.778302086E0,-2.667140722E0,9.538799286E0,2.305616140E0
1.780302086E0,-2.707842112E0,9.502885818E0,2.300827742E0
1.782302086E0,-2.760514498E0,9.450213432E0,2.291250944E0
1.784302086E0,-2.817975283E0,9.395146370E0,2.279279947E0
1.786302086E0,-2.880224705E0,9.313743591E0,2.233790159E0
1.788302952E0,-2.925714493E0,9.232340813E0,2.169146776E0
1.790303818E0,-2.947262287E0,9.146149635E0,2.082955360E0
1.792303784E0,-2.952050686E0,9.047987938E0,1.980004787E0
1.794303750E0,-2.966415882E0,8.978555679E0,1.960851192E0
1.796303716E0,-2.985569477E0,8.930671692E0,1.994369984E0
1.798303682E0,-3.021482468E0,8.911518097E0,2.118868589E0
1.800303648E0,-3.059789658E0,8.921094894E0,2.312798738E0
1.802303614E0,-3.088520288E0,8.940248489E0,2.518700123E0
1.804303580E0,-3.110068083E0,8.971372604E0,2.767697096E0
1.806303546E0,-3.129221678E0,9.002497673E0,3.021482468E0
1.808302679E0,-3.141192675E0,9.026439667E0,3.239354849E0
1.810301812E0,-3.153163671E0,9.033622742E0,3.406949043E0
1.812300978E0,-3.160346270E0,9.014469147E0,3.505111217E0
1.814300144E0,-3.162740469E0,8.990526199E0,3.562572241E0
1.816300177E0,-3.153163671E0,8.966584206E0,3.588908434E0
1.818300210E0,-3.136404276E0,8.949825287E0,3.617638826E0
1.820300243E0,-3.122039080E0,8.937853813E0,3.648763418E0
1.822300276E0,-3.110068083E0,8.930671692E0,3.694253206E0
1.824300276E0,-3.105279684E0,8.925883293E0,3.751713991E0
1.826300242E0,-3.105279684E0,8.921094894E0,3.809175014E0
1.828301075E0,-3.114856482E0,8.925883293E0,3.873818398E0
1.830301908E0,-3.131615877E0,8.947430611E0,3.957615376E0
1.832302741E0,-3.148375273E0,8.973767281E0,4.039018154E0
1.834302707E0,-3.177105665E0,9.009679794E0,4.122815132E0
1.836302673E0,-3.215412855E0,9.059958458E0,4.204218388E0
1.838302639E0,-3.253720045E0,9.112630844E0,4.273650169E0
1.840302639E0,-3.306392431E0,9.186851501E0,4.338293552E0
1.842302672E0,-3.368641853E0,9.268254280E0,4.390965939E0
1.844302705E0,-3.428496838E0,9.347262383E0,4.434061527E0
1.846302738E0,-3.493140221E0,9.440636635E0,4.469974518E0
1.848301904E0,-3.562572241E0,9.541193008E0,4.493916512E0
1.850301070E0,-3.629609823E0,9.629778862E0,4.510675907E0
1.852300236E0,-3.708618402E0,9.723152161E0,4.517858505E0
1.854299402E0,-3.787626982E0,9.809343338E0,4.510675907E0
1.856299202E0,-3.859453201E0,9.876380920E0,4.498704910E0
1.858299202E0,-3.933673382E0,9.924264908E0,4.469974518E0
1.860299202E0,-4.005499363E0,9.948206902E0,4.434061527E0
1.862299202E0,-4.065354347E0,9.960178375E0,4.398148537E0
1.864299202E0,-4.118026733E0,9.945813179E0,4.362235546E0
1.866299202E0,-4.161122322E0,9.907505989E0,4.331110954E0
1.868300068E0,-4.192247391E0,9.866804123E0,4.307168961E0
1.870300934E0,-4.209006786E0,9.811738014E0,4.295197964E0
1.872301767E0,-4.204218388E0,9.742305756E0,4.297592163E0
1.874302600E0,-4.192247391E0,9.677662849E0,4.307168961E0
1.876302566E0,-4.158728123E0,9.610625267E0,4.323928356E0
1.878302532E0,-4.103661537E0,9.543587685E0,4.345476151E0
1.880302498E0,-4.046200752E0,9.483732224E0,4.367023945E0
1.882302464E0,-3.979163170E0,9.426271439E0,4.390965939E0
1.884302430E0,-3.900154591E0,9.373599052E0,4.407725334E0
1.886302430E0,-3.825934410E0,9.325715065E0,4.422090530E0
1.888301563E0,-3.751713991E0,9.280224800E0,4.429273129E0
1.890301596E0,-3.677493811E0,9.241917610E0,4.414907932E0
1.892301629E0,-3.615244627E0,9.210793495E0,4.393360138E0
1.894301662E0,-3.555389643E0,9.189245224E0,4.355052948E0
1.896301695E0,-3.500322819E0,9.174880028E0,4.309563160E0
1.898301728E0,-3.454833031E0,9.167697906E0,4.261679173E0
1.900301761E0,-3.423708439E0,9.167697906E0,4.199429989E0
1.902301761E0,-3.406949043E0,9.172486305E0,4.120420933E0
1.904301727E0,-3.399766445E0,9.174880028E0,4.036623955E0
1.906301693E0,-3.411737442E0,9.172486305E0,3.924096584E0
1.908302526E0,-3.447650433E0,9.158121109E0,3.780444384E0
1.910303359E0,-3.512293816E0,9.138967514E0,3.636792421E0
1.912304192E0,-3.584120035E0,9.105448723E0,3.471592426E0
1.914305025E0,-3.682282209E0,9.059958458E0,3.306392431E0
1.916305225E0,-3.790021181E0,9.016862869E0,3.160346270E0
1.918305225E0,-3.888183594E0,8.978555679E0,3.028665066E0
1.920305225E0,-3.986345768E0,8.942642212E0,2.913743496E0
1.922305225E0,-4.077325344E0,8.909123421E0,2.820369720E0
1.924305225E0,-4.151545525E0,8.877999306E0,2.746149302E0
1.926305225E0,-4.218583584E0,8.837297440E0,2.686294317E0
1.928304358E0,-4.276044369E0,8.794201851E0,2.640804529E0
1.930303491E0,-4.323928356E0,8.736741066E0,2.612074137E0
1.932303491E0,-4.357447147E0,8.664915085E0,2.590526342E0
1.934303491E0,-4.376600742E0,8.578723907E0,2.576161146E0
1.936303524E0,-4.393360138E0,8.492532730E0,2.564189911E0
1.938303557E0,-4.407725334E0,8.394370079E0,2.557007313E0
1.940303590E0,-4.429273129E0,8.298602104E0,2.564189911E0
1.942303623E0,-4.446032524E0,8.214805603E0,2.578555346E0
1.944303656E0,-4.462791920E0,8.138191223E0,2.612074137E0
1.946303689E0,-4.486733913E0,8.078335762E0,2.659958124E0
1.948304589E0,-4.515464306E0,8.030451775E0,2.710236311E0
1.950304589E0,-4.548983097E0,7.989750385E0,2.774879694E0
1.952304555E0,-4.584896088E0,7.961019993E0,2.834734917E0
1.954304521E0,-4.635174274E0,7.941866398E0,2.882618904E0
1.956304487E0,-4.699818134E0,7.934683800E0,2.920926094E0
1.958304453E0,-4.762067318E0,7.937077999E0,2.937685490E0
1.960304419E0,-4.814739704E0,7.944260597E0,2.944868088E0
1.962304385E0,-4.860229492E0,7.961019993E0,2.937685490E0
1.964304385E0,-4.886565685E0,7.987356186E0,2.920926094E0
1.966304385E0,-4.898836136E0,8.023268700E0,2.906560898E0
1.968303518E0,-4.901230335E0,8.090307236E0,2.906560898E0
1.970302684E0,-4.886565685E0,8.166921616E0,2.940079689E0
1.972301850E0,-4.865017891E0,8.267477989E0,2.990357876E0
1.974302816E0,-4.845864296E0,8.391976357E0,3.066972494E0
1.976302849E0,-4.829104900E0,8.530839920E0,3.145981073E0
1.978302882E0,-4.814739704E0,8.655338287E0,3.210624456E0
1.980302915E0,-4.807557106E0,8.782231331E0,3.253720045E0
1.982302915E0,-4.821922302E0,8.899546623E0,3.263296843E0
1.984302915E0,-4.845864296E0,8.992920876E0,3.256114244E0
1.986302915E0,-4.893748283E0,9.067141533E0,3.220201254E0
1.988303781E0,-4.970662117E0,9.112630844E0,3.167528868E0
1.990304647E0,-5.052064896E0,9.138967514E0,3.119644880E0
1.992304647E0,-5.157409668E0,9.126996040E0,3.076549292E0
1.994304647E0,-5.281908035E0,9.076718330E0,3.038241863E0
1.996304613E0,-5.404012680E0,9.012074471E0,3.002328873E0
1.998304579E0,-5.554847240E0,8.904335022E0,2.971204281E0
2.000304545E0,-5.727229595E0,8.758289337E0,2.949656487E0
2.002304511E0,-5.887641430E0,8.609848976E0,2.932897091E0
2.004304477E0,-6.055235386E0,8.425495148E0,2.920926094E0
2.006304443E0,-6.201281548E0,8.231564522E0,2.918531895E0
2.008303543E0,-6.311414719E0,8.063970566E0,2.920926094E0
2.010302643E0,-6.371270180E0,7.908347607E0,2.928108692E0
2.012301776E0,-6.380846977E0,7.781454563E0,2.935291290E0
2.014300942E0,-6.366481781E0,7.680898190E0,2.942473888E0
2.016300975E0,-6.313809395E0,7.606678009E0,2.947262287E0
2.018301008E0,-6.241982937E0,7.568370819E0,2.944868088E0
2.020301041E0,-6.182127953E0,7.551611423E0,2.942473888E0
2.022301074E0,-6.141426563E0,7.568370819E0,2.930502892E0
2.024301107E0,-6.160580158E0,7.601889610E0,2.899378300E0
2.026301140E0,-6.218040943E0,7.630620003E0,2.849100113E0
2.028302040E0,-6.332962990E0,7.666532993E0,2.746149302E0
2.030302873E0,-6.462249756E0,7.728782177E0,2.602497339E0
2.032303706E0,-6.574777126E0,7.805397034E0,2.461239338E0
2.034302739E0,-6.653785706E0,7.927501202E0,2.319981337E0
2.036302705E0,-6.672939301E0,8.097489357E0,2.200271368E0
2.038302671E0,-6.658574104E0,8.269871712E0,2.102109194E0
2.040302637E0,-6.579565525E0,8.478167534E0,2.030282974E0
2.042302637E0,-6.452672958E0,8.710405350E0,1.984793186E0
2.044302637E0,-6.330568790E0,8.918700218E0,1.953668594E0
2.046302670E0,-6.213252544E0,9.100660324E0,1.941697598E0
2.048301836E0,-6.117484570E0,9.234735489E0,1.948880196E0
2.050301002E0,-6.038475990E0,9.330503464E0,1.968033791E0
2.052300168E0,-5.954679012E0,9.390357971E0,2.035071373E0
2.054299334E0,-5.863699436E0,9.407117844E0,2.152387381E0
2.056299234E0,-5.779901981E0,9.407117844E0,2.281674147E0
2.058299267E0,-5.688922405E0,9.371204376E0,2.442085743E0
2.060299300E0,-5.590760231E0,9.301773071E0,2.612074137E0
2.062299300E0,-5.499780655E0,9.225158691E0,2.762908697E0
2.064299300E0,-5.406406879E0,9.119813919E0,2.911349297E0
2.066299300E0,-5.313032627E0,8.997709274E0,3.059789658E0
2.068300166E0,-5.226841450E0,8.882787704E0,3.193865061E0
2.070301032E0,-5.140650272E0,8.755894661E0,3.325546265E0
2.072301898E0,-5.052064896E0,8.629002571E0,3.447650433E0
2.074302731E0,-4.975450516E0,8.516474724E0,3.550601006E0
2.076302697E0,-4.903624535E0,8.399158478E0,3.632004023E0
2.078302663E0,-4.845864296E0,8.281843185E0,3.694253206E0
2.080302629E0,-4.802768707E0,8.178892136E0,3.742137194E0
2.082302595E0,-4.786009312E0,8.080730438E0,3.780444384E0
2.084302561E0,-4.793191910E0,7.994538784E0,3.809175014E0
2.086302527E0,-4.812345505E0,7.925107002E0,3.837905407E0
2.088301627E0,-4.850652695E0,7.867646217E0,3.869029999E0
2.090301627E0,-4.910807133E0,7.812579632E0,3.907337189E0
2.092301660E0,-4.973056316E0,7.769483566E0,3.943250179E0
2.094301693E0,-5.042488098E0,7.743147373E0,3.991134167E0
2.096301726E0,-5.107131481E0,7.735964775E0,4.050989151E0
2.098301759E0,-5.164592266E0,7.735964775E0,4.110844135E0
2.100301792E0,-5.210082054E0,7.750329971E0,4.187458992E0
2.102301825E0,-5.238812447E0,7.774271965E0,4.268861771E0
2.104301858E0,-5.245995045E0,7.800608635E0,4.343081951E0
2.106301858E0,-5.238812447E0,7.841310024E0,4.412513733E0
2.108302691E0,-5.202899456E0,7.886799812E0,4.472368717E0
2.110303524E0,-5.143044472E0,7.925107002E0,4.522646904E0
2.112304357E0,-5.078401089E0,7.961019993E0,4.563348293E0
2.114305190E0,-4.994604111E0,7.999327183E0,4.596867085E0
2.116305290E0,-4.896441936E0,8.032846451E0,4.625597477E0
2.118305256E0,-4.797980309E0,8.066365242E0,4.651933670E0
2.120305222E0,-4.690241337E0,8.104672432E0,4.683058739E0
2.122305222E0,-4.568136692E0,8.147768021E0,4.726154327E0
2.124305255E0,-4.455609322E0,8.190863609E0,4.771644115E0
2.126305288E0,-4.335899353E0,8.243535995E0,4.826710701E0
2.128304454E0,-4.223371983E0,8.293813705E0,4.879383087E0
2.130303620E0,-4.108449936E0,8.346486092E0,4.939537525E0
2.132303653E0,-3.998316765E0,8.387187958E0,5.004180908E0
2.134303686E0,-3.885789394E0,8.420706749E0,5.059247494E0
2.136303719E0,-3.782838583E0,8.451830864E0,5.102343082E0
2.138303752E0,-3.684676409E0,8.473379135E0,5.131073475E0
2.140303752E0,-3.593696833E0,8.473379135E0,5.133467674E0
2.142303752E0,-3.519476414E0,8.466196060E0,5.121496677E0
2.144303752E0,-3.459621429E0,8.427888870E0,5.090372086E0
2.146303752E0,-3.406949043E0,8.214805603E0,5.145438671E0
2.148304618E0,-3.361459255E0,7.975385189E0,5.226841450E0
2.150304618E0,-3.332728863E0,7.733570576E0,5.289090633E0
2.152304584E0,-3.303998232E0,7.491756439E0,5.313032627E0
2.154304550E0,-3.270479441E0,7.257124424E0,5.341763496E0
2.156304516E0,-3.244143248E0,7.046434879E0,5.396830082E0
2.158304482E0,-3.246537447E0,6.895600319E0,5.463867664E0
2.160304448E0,-3.260902643E0,6.785466671E0,5.526116848E0
2.162304414E0,-3.292027235E0,6.718429089E0,5.597942829E0
2.164304380E0,-3.347094059E0,6.692092896E0,5.691316605E0
2.166304346E0,-3.409343243E0,6.687304497E0,5.782296181E0
2.168303479E0,-3.502717018E0,6.718429089E0,5.885247231E0
2.170302645E0,-3.627215624E0,6.780678272E0,5.985803604E0
2.172301811E0,-3.751713991E0,6.850110531E0,6.069600582E0
2.174301844E0,-3.895366192E0,6.936301708E0,6.139032364E0
2.176301877E0,-4.041412354E0,7.034463882E0,6.182127953E0
2.178301910E0,-4.168305397E0,7.123049259E0,6.206069946E0
2.180301943E0,-4.280832767E0,7.197269440E0,6.196493149E0
2.182301976E0,-4.362235546E0,7.230788231E0,6.158185959E0
2.184301976E0,-4.417302132E0,7.237970829E0,6.112696171E0
2.186301942E0,-4.426878929E0,7.202057838E0,6.052841187E0
2.188302775E0,-4.398148537E0,7.130231857E0,5.981015205E0
2.190303608E0,-4.352658749E0,7.056011677E0,5.916371822E0
2.192303574E0,-4.268861771E0,6.962637901E0,5.846940041E0
2.194303540E0,-4.153939724E0,6.883629322E0,5.779901981E0
2.196303506E0,-4.041412354E0,6.821380138E0,5.720046997E0
2.198303472E0,-3.907337189E0,6.775889874E0,5.660192013E0
2.200303472E0,-3.754108191E0,6.744765282E0,5.595548630E0
2.202303505E0,-3.610456228E0,6.720823288E0,5.535693645E0
2.204303538E0,-3.462015629E0,6.716034889E0,5.473444462E0
2.206303571E0,-3.313575268E0,6.728005886E0,5.411195278E0
2.208302737E0,-3.181894064E0,6.739976883E0,5.356128693E0
2.210301903E0,-3.045424461E0,6.756736279E0,5.296273232E0
2.212301069E0,-2.904166698E0,6.780678272E0,5.236418247E0
2.214300235E0,-2.777273893E0,6.804620743E0,5.181351662E0
2.216300268E0,-2.647987127E0,6.830956936E0,5.121496677E0
2.218300268E0,-2.513911724E0,6.852504730E0,5.061641693E0
2.220300268E0,-2.396595955E0,6.871658325E0,5.006575108E0
2.222300268E0,-2.293645144E0,6.897994518E0,4.956296921E0
2.224300268E0,-2.205059767E0,6.929119110E0,4.906018734E0
2.226300268E0,-2.130839586E0,6.957849503E0,4.862623692E0
2.228301134E0,-2.070984364E0,6.991368294E0,4.824316502E0
2.230301967E0,-2.023100376E0,7.036858082E0,4.797980309E0
2.232302800E0,-1.984793186E0,7.082347870E0,4.778826714E0
2.234302766E0,-1.970427990E0,7.135020256E0,4.771644115E0
2.236302732E0,-1.970427990E0,7.192481041E0,4.778826714E0
2.238302698E0,-1.977610588E0,7.247547626E0,4.793191910E0
2.240302664E0,-2.003946781E0,7.305008888E0,4.812345505E0
2.242302630E0,-2.049436569E0,7.367258072E0,4.838681698E0
2.244302596E0,-2.099714994E0,7.422324657E0,4.867412090E0
2.246302596E0,-2.164358377E0,7.474997044E0,4.903624535E0
2.248301762E0,-2.243366957E0,7.525275230E0,4.944325924E0
2.250300928E0,-2.317587137E0,7.570765018E0,4.982633114E0
2.252300094E0,-2.398990154E0,7.611466408E0,5.025728703E0
2.254299260E0,-2.485181332E0,7.649773598E0,5.066430092E0
2.256298493E0,-2.564189911E0,7.685686588E0,5.102343082E0
2.258298526E0,-2.650381327E0,7.716811180E0,5.133467674E0
2.260298559E0,-2.736572504E0,7.743147373E0,5.162198067E0
2.262298559E0,-2.815581083E0,7.767089367E0,5.186140060E0
2.264298525E0,-2.892195702E0,7.788637638E0,5.212476254E0
2.266298491E0,-2.966415882E0,7.807791233E0,5.236418247E0
2.268299324E0,-3.031059265E0,7.822156429E0,5.257966042E0
2.270300157E0,-3.090914488E0,7.831733227E0,5.281908035E0
2.272300990E0,-3.143586874E0,7.848492622E0,5.308244228E0
2.274301823E0,-3.186682463E0,7.865252018E0,5.329792023E0
2.276301789E0,-3.227383852E0,7.884405613E0,5.348946095E0
2.278301789E0,-3.265691042E0,7.905953407E0,5.363311291E0
2.280301822E0,-3.299209833E0,7.925107002E0,5.375282288E0
2.282301855E0,-3.330334663E0,7.946654797E0,5.382464886E0
2.284301888E0,-3.354276657E0,7.970596790E0,5.380070686E0
2.286301921E0,-3.368641853E0,7.992144585E0,5.372888088E0
2.288301087E0,-3.378218651E0,8.011298180E0,5.360917091E0
2.290301120E0,-3.385401249E0,8.028057098E0,5.348946095E0
2.292301153E0,-3.387795448E0,8.040028572E0,5.334580898E0
2.294301186E0,-3.390189648E0,8.047211647E0,5.320215225E0
2.296301186E0,-3.390189648E0,8.056788445E0,5.305850029E0
2.298301186E0,-3.387795448E0,8.066365242E0,5.298667431E0
2.300301186E0,-3.387795448E0,8.080730438E0,5.293879032E0
2.302301186E0,-3.383007050E0,8.095095634E0,5.291484833E0
2.304301186E0,-3.375824451E0,8.107066154E0,5.291484833E0
2.306301186E0,-3.371036053E0,8.116642952E0,5.293879032E0
2.308302019E0,-3.359065056E0,8.126219749E0,5.296273232E0
2.310302852E0,-3.342305660E0,8.138191223E0,5.301061630E0
2.312303685E0,-3.323152065E0,8.152556419E0,5.303455830E0
2.314304518E0,-3.303998232E0,8.159738541E0,5.303455830E0
2.316305284E0,-3.284844637E0,8.159738541E0,5.301061630E0
2.318305250E0,-3.260902643E0,8.157344818E0,5.298667431E0
2.320305216E0,-3.227383852E0,8.138191223E0,5.291484833E0
2.322305182E0,-3.181894064E0,8.109460831E0,5.277119637E0
2.324305182E0,-3.131615877E0,8.078335762E0,5.260360241E0
2.326305215E0,-3.071760893E0,8.044816971E0,5.241206646E0
2.328304381E0,-3.019088268E0,8.013691902E0,5.224447250E0
2.330303547E0,-2.971204281E0,7.977779388E0,5.207687855E0
2.332303580E0,-2.925714493E0,7.941866398E0,5.190928459E0
2.334303613E0,-2.894589901E0,7.910741806E0,5.176563263E0
2.336303646E0,-2.877830505E0,7.886799812E0,5.164592266E0
2.338303679E0,-2.882618904E0,7.877223015E0,5.157409668E0
2.340303679E0,-2.908955097E0,7.879617214E0,5.152621269E0
2.342303645E0,-2.944868088E0,7.884405613E0,5.147832870E0
2.344303611E0,-3.002328873E0,7.908347607E0,5.143044472E0
2.346303577E0,-3.081337690E0,7.946654797E0,5.143044472E0
2.348304410E0,-3.157952070E0,7.989750385E0,5.143044472E0
2.350304376E0,-3.253720045E0,8.056788445E0,5.143044472E0
2.352304342E0,-3.356670856E0,8.140584946E0,5.143044472E0
2.354304308E0,-3.452438831E0,8.219594002E0,5.143044472E0
2.356304308E0,-3.562572241E0,8.310573578E0,5.147832870E0
2.358304341E0,-3.677493811E0,8.413523674E0,5.145438671E0
2.360304374E0,-3.780444384E0,8.509291649E0,5.140650272E0
2.362304407E0,-3.881000996E0,8.609848976E0,5.128679276E0
2.364304440E0,-3.971980572E0,8.705616951E0,5.104737282E0
2.366304473E0,-4.048594952E0,8.787019730E0,5.076006889E0
2.368303639E0,-4.103661537E0,8.856451035E0,5.032911301E0
2.370302805E0,-4.141968727E0,8.911518097E0,4.977844715E0
2.372301971E0,-4.165910721E0,8.957007408E0,4.925172329E0
2.374301971E0,-4.180276394E0,8.985737801E0,4.860229492E0
2.376301971E0,-4.185064793E0,9.002497673E0,4.793191910E0
2.378301971E0,-4.182670593E0,9.014469147E0,4.735731125E0
2.380301971E0,-4.170699596E0,9.019257545E0,4.680664539E0
2.382301971E0,-4.151545525E0,9.012074471E0,4.630385876E0
2.384301971E0,-4.127603531E0,9.000102997E0,4.589684486E0
2.386301937E0,-4.089296341E0,8.973767281E0,4.551377296E0
2.388302770E0,-4.043806553E0,8.937853813E0,4.515464306E0
2.390303603E0,-3.995922565E0,8.897152901E0,4.486733913E0
2.392303569E0,-3.940855980E0,8.842085838E0,4.460397720E0
2.394303535E0,-3.876212597E0,8.775048256E0,4.436455727E0
2.396303501E0,-3.816357613E0,8.708010674E0,4.414907932E0
2.398303467E0,-3.744531393E0,8.629002571E0,4.395754337E0
2.400303433E0,-3.665522814E0,8.545205116E0,4.383783340E0
2.402303433E0,-3.596091032E0,8.466196060E0,4.376600742E0
2.404303466E0,-3.526659012E0,8.389581680E0,4.374206543E0
2.406303499E0,-3.454833031E0,8.315361977E0,4.378994942E0
2.408302665E0,-3.392583847E0,8.250718117E0,4.383783340E0
2.410301831E0,-3.332728863E0,8.188468933E0,4.393360138E0
2.412300997E0,-3.272873640E0,8.128614426E0,4.402936935E0
2.414300163E0,-3.217807055E0,8.078335762E0,4.412513733E0
2.416300096E0,-3.172317266E0,8.032846451E0,4.419696331E0
2.418300096E0,-3.124433279E0,7.994538784E0,4.426878929E0
2.420300062E0,-3.083731890E0,7.963414192E0,4.431667328E0
2.422300028E0,-3.047818661E0,7.939472198E0,4.436455727E0
2.424299994E0,-3.016694069E0,7.920318604E0,4.438849926E0
2.426299960E0,-2.990357876E0,7.905953407E0,4.441244125E0
2.428300793E0,-2.961627483E0,7.898770809E0,4.446032524E0
2.430301626E0,-2.940079689E0,7.898770809E0,4.453215122E0
2.432302459E0,-2.925714493E0,7.898770809E0,4.462791920E0
2.434302459E0,-2.918531895E0,7.903559208E0,4.472368717E0
2.436302492E0,-2.908955097E0,7.913136005E0,4.481945515E0
2.438302525E0,-2.906560898E0,7.920318604E0,4.486733913E0
2.440302558E0,-2.908955097E0,7.932289600E0,4.491522312E0
2.442302591E0,-2.918531895E0,7.946654797E0,4.491522312E0
2.444302624E0,-2.928108692E0,7.961019993E0,4.491522312E0
2.446302657E0,-2.935291290E0,7.977779388E0,4.493916512E0
2.448301823E0,-2.947262287E0,7.992144585E0,4.496310711E0
2.450300989E0,-2.959233284E0,8.001721382E0,4.501099110E0
2.452300122E0,-2.975992680E0,8.011298180E0,4.510675907E0
2.454299255E0,-2.997540474E0,8.025663376E0,4.522646904E0
2.456298355E0,-3.016694069E0,8.032846451E0,4.534617901E0
2.458298355E0,-3.031059265E0,8.032846451E0,4.556165695E0
2.460298355E0,-3.040636063E0,8.035240173E0,4.587290287E0
2.462298355E0,-3.047818661E0,8.037634850E0,4.620809078E0
2.464298321E0,-3.055001259E0,8.037634850E0,4.661510944E0
2.466298287E0,-3.057395458E0,8.032846451E0,4.709394932E0
2.468299120E0,-3.057395458E0,8.025663376E0,4.754884720E0
2.470299953E0,-3.052607059E0,8.013691902E0,4.807557106E0
2.472300786E0,-3.045424461E0,7.994538784E0,4.867412090E0
2.474301619E0,-3.035847664E0,7.975385189E0,4.925172329E0
2.476301685E0,-3.026270866E0,7.953837395E0,4.985027313E0
2.478301651E0,-3.007117271E0,7.932289600E0,5.052064896E0
2.480301651E0,-2.985569477E0,7.910741806E0,5.123890877E0
2.482301684E0,-2.964021683E0,7.886799812E0,5.188534260E0
2.484301717E0,-2.937685490E0,7.858069420E0,5.255571842E0
2.486301750E0,-2.911349297E0,7.831733227E0,5.322609425E0
2.488300916E0,-2.887407303E0,7.798214436E0,5.380070686E0
2.490300949E0,-2.856282711E0,7.762300968E0,5.432743073E0
2.492300982E0,-2.822763920E0,7.723993778E0,5.478232861E0
2.494301015E0,-2.791639090E0,7.688080788E0,5.516540051E0
2.496301015E0,-2.750937700E0,7.649773598E0,5.540482044E0
2.498300981E0,-2.705447912E0,7.611466408E0,5.550058842E0
2.500300947E0,-2.662352324E0,7.573159218E0,5.552453041E0
2.502300913E0,-2.612074137E0,7.532457829E0,5.542876244E0
2.504300879E0,-2.552218914E0,7.489362240E0,5.521328449E0
2.506300845E0,-2.497152328E0,7.451055050E0,5.497386456E0
2.508301678E0,-2.434903145E0,7.412747860E0,5.468656063E0
2.510302511E0,-2.379836559E0,7.379229069E0,5.430348873E0
2.512303377E0,-2.334346771E0,7.350498676E0,5.389647484E0
2.514304277E0,-2.284068346E0,7.326556683E0,5.339369297E0
2.516305210E0,-2.231395960E0,7.307403088E0,5.277119637E0
2.518305243E0,-2.188300371E0,7.293037415E0,5.217264652E0
2.520305276E0,-2.145204782E0,7.281066418E0,5.152621269E0
2.522305309E0,-2.102109194E0,7.271489620E0,5.085583687E0
2.524305342E0,-2.063801765E0,7.264307022E0,5.025728703E0
2.526305375E0,-2.027888775E0,7.259518623E0,4.965873718E0
2.528304541E0,-1.994369984E0,7.257124424E0,4.910807133E0
2.530303674E0,-1.965639591E0,7.257124424E0,4.862623692E0
2.532303674E0,-1.946485996E0,7.257124424E0,4.821922302E0
2.534303674E0,-1.936909199E0,7.252336025E0,4.793191910E0
2.536303674E0,-1.932120800E0,7.249941826E0,4.774038315E0
2.538303674E0,-1.936909199E0,7.249941826E0,4.766855717E0
2.540303674E0,-1.948880196E0,7.247547626E0,4.778826714E0
2.542303640E0,-1.965639591E0,7.245153427E0,4.795586109E0
2.544303606E0,-1.991975784E0,7.247547626E0,4.824316502E0
2.546303572E0,-2.037465572E0,7.247547626E0,4.857835293E0
2.548304405E0,-2.090138197E0,7.245153427E0,4.879383087E0
2.550304371E0,-2.154781580E0,7.233182430E0,4.867412090E0
2.552304337E0,-2.224213362E0,7.225999832E0,4.817133904E0
2.554304303E0,-2.288856745E0,7.233182430E0,4.757278919E0
2.556304269E0,-2.355894566E0,7.273883820E0,4.673481941E0
2.558304269E0,-2.420537949E0,7.348104477E0,4.592078686E0
2.560304269E0,-2.477998734E0,7.429507256E0,4.527435303E0
2.562304302E0,-2.533065319E0,7.527669430E0,4.501099110E0
2.564304335E0,-2.590526342E0,7.628225803E0,4.513070107E0
2.566304368E0,-2.638410330E0,7.714416981E0,4.537012100E0
2.568303534E0,-2.691082716E0,7.791031837E0,4.580107689E0
2.570302700E0,-2.746149302E0,7.850886822E0,4.635174274E0
2.572301866E0,-2.796427488E0,7.898770809E0,4.690241337E0
2.574300999E0,-2.849100113E0,7.934683800E0,4.754884720E0
2.576300965E0,-2.899378300E0,7.958625793E0,4.821922302E0
2.578300931E0,-2.940079689E0,7.970596790E0,4.881777287E0
2.580300897E0,-2.968810081E0,7.963414192E0,4.949114323E0
2.582300863E0,-2.983175278E0,7.944260597E0,5.025728703E0
2.584300829E0,-2.992752075E0,7.925107002E0,5.097554684E0
2.586300795E0,-2.990357876E0,7.898770809E0,5.178957462E0
2.588301628E0,-2.978386879E0,7.870040417E0,5.265148640E0
2.590302494E0,-2.964021683E0,7.843704224E0,5.344157696E0
2.592302527E0,-2.937685490E0,7.824550629E0,5.427954674E0
2.594302560E0,-2.904166698E0,7.805397034E0,5.509357452E0
2.596302593E0,-2.873042107E0,7.791031837E0,5.578789234E0
2.598302626E0,-2.832340717E0,7.781454563E0,5.645826817E0
2.600302659E0,-2.796427488E0,7.781454563E0,5.705681801E0
2.602302692E0,-2.765302896E0,7.781454563E0,5.753565788E0
2.604302725E0,-2.731784105E0,7.783848763E0,5.789478779E0
2.606302758E0,-2.695871115E0,7.793426037E0,5.806238174E0
2.608301891E0,-2.659958124E0,7.805397034E0,5.813420773E0
2.610301024E0,-2.624045134E0,7.824550629E0,5.799055576E0
2.612300157E0,-2.588132143E0,7.850886822E0,5.758354187E0
2.614299290E0,-2.554613113E0,7.879617214E0,5.708076000E0
2.616298423E0,-2.523488522E0,7.915530205E0,5.631461620E0
2.618298423E0,-2.492363930E0,7.944260597E0,5.538087845E0
2.620298423E0,-2.458845139E0,7.946654797E0,5.447108269E0
2.622298389E0,-2.415749550E0,7.877223015E0,5.339369297E0
2.624298355E0,-2.360682964E0,7.803002834E0,5.217264652E0
2.626298321E0,-2.312798738E0,7.745541573E0,5.104737282E0
2.628299154E0,-2.267308950E0,7.709628582E0,4.994604111E0
2.630299987E0,-2.224213362E0,7.697657585E0,4.891354084E0
2.632300820E0,-2.190694571E0,7.692869186E0,4.802768707E0
2.634301653E0,-2.166752577E0,7.695263386E0,4.716577530E0
