"Time (s)","Gyroscope x (rad/s)","Gyroscope y (rad/s)","Gyroscope z (rad/s)"
1.389065900E-2,-4.214970022E-2,1.863138974E-1,-1.851685345E-1
1.589065900E-2,-4.214970022E-2,1.863138974E-1,-1.851685345E-1
1.789065900E-2,-4.214970022E-2,1.863138974E-1,-1.851685345E-1
1.989065900E-2,-4.214970022E-2,1.863138974E-1,-1.851685345E-1
2.189065900E-2,-6.536258012E-2,3.072652221E-1,-2.615266740E-1
2.389065900E-2,-6.291911751E-2,3.127630055E-1,-2.713005245E-1
2.589065900E-2,-5.070181563E-2,3.286454976E-1,-2.835178375E-1
2.789082500E-2,-5.558873713E-2,3.323107064E-1,-2.902373374E-1
2.989096700E-2,-5.192354694E-2,3.384193480E-1,-2.981785834E-1
3.189109200E-2,-4.398229718E-2,3.524692357E-1,-3.128393590E-1
3.389120300E-2,-4.520402849E-2,3.536909819E-1,-3.158936799E-1
3.589130300E-2,-4.948008433E-2,3.640756905E-1,-3.238349259E-1
3.789139300E-2,-6.047565863E-2,3.646865487E-1,-3.366630971E-1
3.989147600E-2,-6.475171447E-2,3.652974069E-1,-3.366630971E-1
4.189155200E-2,-6.352998316E-2,3.659082949E-1,-3.409391642E-1
4.389155200E-2,-7.147123665E-2,3.646865487E-1,-3.439934850E-1
4.588981800E-2,-7.269296050E-2,3.640756905E-1,-3.452152312E-1
4.788819300E-2,-7.696902007E-2,3.518583775E-1,-3.122285008E-1
4.988666300E-2,-8.613199741E-2,3.390302062E-1,-2.749657333E-1
5.188521800E-2,-8.857546002E-2,3.371976018E-1,-2.603049576E-1
5.388379600E-2,-9.896016866E-2,3.249803185E-1,-2.242639065E-1
5.588379600E-2,-9.224065393E-2,3.158173263E-1,-1.943315119E-1
5.788379600E-2,-9.834930301E-2,3.072652221E-1,-1.821141988E-1
5.988379600E-2,-1.014036313E-1,2.889392674E-1,-1.564578563E-1
6.188379600E-2,-1.020144969E-1,2.742784917E-1,-1.381319016E-1
6.388379600E-2,-9.773843735E-2,2.700024247E-1,-1.308015138E-1
6.588379600E-2,-1.020144969E-1,2.498438805E-1,-1.130864322E-1
6.788379600E-2,-9.346238524E-2,2.296853364E-1,-9.903652966E-2
6.988379600E-2,-8.246681094E-2,2.247984111E-1,-9.537133574E-2
7.188379600E-2,-8.552113175E-2,2.101376504E-1,-8.987355232E-2
7.388383000E-2,-7.696902007E-2,1.985312104E-1,-8.254316449E-2
7.588386300E-2,-7.819075137E-2,1.930334121E-1,-8.315403014E-2
7.788389600E-2,-6.291911751E-2,1.881465018E-1,-8.315403014E-2
7.988392900E-2,-5.986479297E-2,1.875356287E-1,-8.437576145E-2
8.188396200E-2,-5.558873713E-2,1.838704348E-1,-8.743008971E-2
8.388399500E-2,-2.809980139E-2,1.905899495E-1,-8.865182102E-2
8.588316100E-2,-1.954768784E-2,1.814269722E-1,-9.414960444E-2
8.788316100E-2,-1.893682219E-2,1.795943826E-1,-9.903652966E-2
8.988312700E-2,3.054326167E-3,1.759291887E-1,-1.069777757E-1
9.188309300E-2,2.504547499E-2,1.667662114E-1,-1.136972904E-1
9.388305900E-2,3.176499158E-2,1.631010175E-1,-1.161407530E-1
9.588302500E-2,4.214970022E-2,1.551597714E-1,-1.228602752E-1
9.788299100E-2,6.780604273E-2,1.453859210E-1,-1.277471930E-1
9.988295700E-2,7.452555746E-2,1.404990107E-1,-1.338558495E-1
1.018829230E-1,8.307767659E-2,1.356120855E-1,-1.405753642E-1
1.038829230E-1,1.026253626E-1,1.374446750E-1,-1.399645060E-1
1.058838230E-1,1.130100712E-1,1.392772794E-1,-1.442405581E-1
1.078847230E-1,1.240056455E-1,1.417207420E-1,-1.472948790E-1
1.098856230E-1,1.215621829E-1,1.459967941E-1,-1.503492147E-1
1.118865230E-1,1.221730486E-1,1.539380401E-1,-1.527926624E-1
1.138874560E-1,1.288925707E-1,1.576032341E-1,-1.527926624E-1
1.158874890E-1,1.343903542E-1,1.679879427E-1,-1.509600729E-1
1.178875220E-1,1.258382350E-1,1.692096740E-1,-1.521818042E-1
1.198875550E-1,1.258382350E-1,1.850921661E-1,-1.540143937E-1
1.218875550E-1,1.185078546E-1,1.912008226E-1,-1.540143937E-1
1.238875550E-1,1.117883399E-1,2.021963894E-1,-1.576795876E-1
1.258866550E-1,1.001819000E-1,2.040289938E-1,-1.589013189E-1
1.278857550E-1,9.468411654E-2,2.125810981E-1,-1.650099754E-1
1.298857550E-1,9.040805697E-2,2.205223590E-1,-1.717294902E-1
1.318857550E-1,8.918632567E-2,2.217440903E-1,-1.760055423E-1
1.338857210E-1,6.963863969E-2,2.235766798E-1,-1.845576614E-1
1.358856870E-1,5.864306539E-2,2.260201424E-1,-1.931097806E-1
1.378856530E-1,5.925392732E-2,2.302961946E-1,-1.949423701E-1
1.398856190E-1,5.253441259E-2,2.296853364E-1,-2.034944892E-1
1.418855850E-1,5.497787148E-2,2.400700450E-1,-2.089922726E-1
1.438855510E-1,4.581489414E-2,2.370157093E-1,-2.126574665E-1
1.458863840E-1,4.581489414E-2,2.345722616E-1,-2.212095708E-1
1.478863500E-1,4.459316283E-2,2.364048511E-1,-2.291508317E-1
1.498863500E-1,4.825835302E-2,2.364048511E-1,-2.303725630E-1
1.518863830E-1,4.520402849E-2,2.309070677E-1,-2.328160107E-1
1.538864160E-1,4.459316283E-2,2.217440903E-1,-2.340377420E-1
1.558864490E-1,4.948008433E-2,2.156354338E-1,-2.346486151E-1
1.578864820E-1,6.597344577E-2,2.076941878E-1,-2.322051525E-1
1.598865150E-1,7.880161703E-2,1.893682331E-1,-2.303725630E-1
1.618865480E-1,8.307767659E-2,1.777617931E-1,-2.248747647E-1
1.638865810E-1,9.162978828E-2,1.545489132E-1,-2.096031308E-1
1.658857140E-1,1.056796908E-1,1.423316002E-1,-2.102140039E-1
1.678848140E-1,1.185078546E-1,1.191187203E-1,-1.931097806E-1
1.698839140E-1,1.313360333E-1,9.834930301E-2,-1.717294902E-1
1.718830140E-1,1.490511149E-1,8.429940045E-2,-1.472948790E-1
1.738829800E-1,1.594358236E-1,7.452555746E-2,-1.356884390E-1
1.758829460E-1,1.685988009E-1,6.719517708E-2,-1.075886413E-1
1.778829120E-1,1.844813079E-1,6.108652428E-2,-7.765624672E-2
1.798828780E-1,1.863138974E-1,5.925392732E-2,-6.421720982E-2
1.818828780E-1,2.150245607E-1,6.108652428E-2,-3.123048507E-2
1.838829110E-1,2.235766798E-1,5.803219974E-2,-4.352414981E-3
1.858838440E-1,2.272418737E-1,5.986479297E-2,1.275181212E-2
1.878847770E-1,2.394591719E-1,5.742133409E-2,3.962988406E-2
1.898848100E-1,2.516764700E-1,5.497787148E-2,6.772968173E-2
1.918848430E-1,2.492330223E-1,5.192354694E-2,8.116871864E-2
1.938848760E-1,2.626720667E-1,4.886921868E-2,1.056033298E-1
1.958849090E-1,2.632829249E-1,3.726277873E-2,1.239292845E-1
1.978849420E-1,2.651155293E-1,3.420845419E-2,1.300379336E-1
1.998849420E-1,2.681698501E-1,2.504547499E-2,1.471421719E-1
2.018849420E-1,2.681698501E-1,1.527163107E-2,1.618029326E-1
2.038849420E-1,2.736676335E-1,8.552113548E-3,1.654681265E-1
2.058840750E-1,2.755002379E-1,3.665191587E-3,1.734093726E-1
2.078832080E-1,2.742784917E-1,-2.443460980E-3,1.831832081E-1
2.098823410E-1,2.791654170E-1,-5.497787148E-3,1.825723499E-1
2.118814410E-1,2.761110961E-1,-9.773843922E-3,1.917353272E-1
2.138805410E-1,2.846632004E-1,-6.108652335E-3,1.929570585E-1
2.158805070E-1,2.730567753E-1,-1.099557430E-2,1.941787899E-1
2.178804730E-1,2.773328125E-1,-7.941247895E-3,1.966222525E-1
2.198804390E-1,2.877175212E-1,-0.000000000E0,1.996765733E-1
2.218804050E-1,2.828305960E-1,1.221730490E-3,1.996765733E-1
2.238803710E-1,2.797762752E-1,6.108652451E-4,2.015091777E-1
2.258812040E-1,2.803871334E-1,3.665191587E-3,2.039526403E-1
2.278820700E-1,2.840523422E-1,3.665191587E-3,1.978439838E-1
2.298829700E-1,2.822197378E-1,3.665191587E-3,2.008983046E-1
2.318838700E-1,2.950479090E-1,6.719517522E-3,2.039526403E-1
2.338839030E-1,2.883284092E-1,2.443460980E-3,2.027309090E-1
2.358839360E-1,2.883284092E-1,1.832595794E-3,2.008983046E-1
2.378839690E-1,2.987131178E-1,4.276056774E-3,2.021200359E-1
2.398840020E-1,2.999348342E-1,3.665191587E-3,2.008983046E-1
2.418840350E-1,3.023782969E-1,5.497787148E-3,2.070069611E-1
2.438840350E-1,2.981022298E-1,7.941247895E-3,2.063960880E-1
2.458831350E-1,3.054326177E-1,1.282817032E-2,2.070069611E-1
2.478822350E-1,3.072652221E-1,1.588249579E-2,2.070069611E-1
2.498813350E-1,3.133738637E-1,1.893682219E-2,2.070069611E-1
2.518804350E-1,3.121521473E-1,2.015855350E-2,2.094504237E-1
2.538804010E-1,3.097086847E-1,1.893682219E-2,2.045634985E-1
2.558803670E-1,3.170390725E-1,1.771509275E-2,2.027309090E-1
2.578803330E-1,3.133738637E-1,1.466076635E-2,2.015091777E-1
2.598803330E-1,3.023782969E-1,8.552113548E-3,1.960113794E-1
2.618803660E-1,3.048217595E-1,2.443460980E-3,1.947896481E-1
2.638803990E-1,3.060434759E-1,1.221730490E-3,1.960113794E-1
2.658812990E-1,3.005456924E-1,-6.108652451E-4,1.917353272E-1
2.678821990E-1,3.048217595E-1,1.832595794E-3,1.862375438E-1
2.698830990E-1,3.084869385E-1,1.832595794E-3,1.856266707E-1
2.718839990E-1,3.036000133E-1,-0.000000000E0,1.844049394E-1
2.738848990E-1,2.987131178E-1,-0.000000000E0,1.819614917E-1
2.758849320E-1,3.017674387E-1,1.832595794E-3,1.819614917E-1
2.778849320E-1,3.060434759E-1,4.886921961E-3,1.770745665E-1
2.798849320E-1,3.017674387E-1,1.038470957E-2,1.795180291E-1
2.818849320E-1,3.072652221E-1,1.893682219E-2,1.850158125E-1
2.838849320E-1,3.048217595E-1,2.687807009E-2,1.868484020E-1
2.858840650E-1,3.060434759E-1,3.481931984E-2,1.929570585E-1
2.878840650E-1,3.103195429E-1,4.153883830E-2,1.929570585E-1
2.898840310E-1,3.023782969E-1,4.459316283E-2,2.045634985E-1
2.918839970E-1,3.078760803E-1,5.009094998E-2,2.112830132E-1
2.938839630E-1,3.133738637E-1,5.009094998E-2,2.155590802E-1
2.958839290E-1,3.078760803E-1,5.314527452E-2,2.271655202E-1
2.978838950E-1,3.121521473E-1,5.925392732E-2,2.399936765E-1
2.998838610E-1,3.109304011E-1,6.108652428E-2,2.448806018E-1
3.018838270E-1,3.060434759E-1,6.780604273E-2,2.625956833E-1
3.038837930E-1,3.048217595E-1,8.368854225E-2,2.784782052E-1
3.058846590E-1,3.078760803E-1,1.007927656E-1,2.864194512E-1
3.078855250E-1,3.090978265E-1,1.117883399E-1,3.047454059E-1
3.098864250E-1,2.944370508E-1,1.295034289E-1,3.242930770E-1
3.118873250E-1,2.828305960E-1,1.472185254E-1,3.426190317E-1
3.138873580E-1,2.858849466E-1,1.576032341E-1,3.517820239E-1
3.158873910E-1,2.730567753E-1,1.649336219E-1,3.713297248E-1
3.178874240E-1,2.577851415E-1,1.716531366E-1,3.939317167E-1
3.198874570E-1,2.498438805E-1,1.747074574E-1,4.000403881E-1
3.218874570E-1,2.431243658E-1,1.759291887E-1,4.232532680E-1
3.238874230E-1,2.229658216E-1,1.783726513E-1,4.428009391E-1
3.258865230E-1,2.046398520E-1,1.747074574E-1,4.482987225E-1
3.278856230E-1,1.893682331E-1,1.808161139E-1,4.629594982E-1
3.298855890E-1,1.783726513E-1,1.832595766E-1,4.806745946E-1
3.318855550E-1,1.643227488E-1,1.844813079E-1,4.861723781E-1
3.338855210E-1,1.508837193E-1,1.887573600E-1,5.026657581E-1
3.358854870E-1,1.331686229E-1,1.881465018E-1,5.136613250E-1
3.378854870E-1,1.270599663E-1,1.863138974E-1,5.179373622E-1
3.398854870E-1,1.050688252E-1,1.826487035E-1,5.313764215E-1
3.418854870E-1,1.001819000E-1,1.832595766E-1,5.484806299E-1
3.438854870E-1,9.896016866E-2,1.814269722E-1,5.533675551E-1
3.458863530E-1,8.307767659E-2,1.740965992E-1,5.655848384E-1
3.478863530E-1,8.429940045E-2,1.789835095E-1,5.826891065E-1
3.498863530E-1,8.185594529E-2,1.740965992E-1,5.900194645E-1
3.518863530E-1,9.224065393E-2,1.753183305E-1,6.046802402E-1
3.538863530E-1,9.101892263E-2,1.698205322E-1,6.248387694E-1
3.558863860E-1,9.162978828E-2,1.612684280E-1,6.315582991E-1
3.578864190E-1,1.160643995E-1,1.606575549E-1,6.462190747E-1
3.598864520E-1,1.185078546E-1,1.496619880E-1,6.645449996E-1
3.618864850E-1,1.270599663E-1,1.466076523E-1,6.712645292E-1
3.638865180E-1,1.374446750E-1,1.343903542E-1,6.840927005E-1
3.658856840E-1,1.600466967E-1,1.295034289E-1,7.018077970E-1
3.678848500E-1,1.612684280E-1,1.246165112E-1,7.066947222E-1
3.698839830E-1,1.734857261E-1,1.227839142E-1,7.164685726E-1
3.718830830E-1,1.918116808E-1,1.221730486E-1,7.292967439E-1
3.738830490E-1,1.997529417E-1,1.215621829E-1,7.354053855E-1
3.758830150E-1,1.973094791E-1,1.215621829E-1,7.409031987E-1
3.778829810E-1,2.083050460E-1,1.252273768E-1,7.531204820E-1
3.798829470E-1,2.064724565E-1,1.240056455E-1,7.537313700E-1
3.818829130E-1,2.070833147E-1,1.325577646E-1,7.555639744E-1
3.838820130E-1,2.095267773E-1,1.362229437E-1,7.604508996E-1
3.858825130E-1,2.101376504E-1,1.380555481E-1,7.592291236E-1
3.878834130E-1,2.028072625E-1,1.374446750E-1,7.525096536E-1
3.898834460E-1,1.979203373E-1,1.392772794E-1,7.476227283E-1
3.918834790E-1,1.966986060E-1,1.368338168E-1,7.464009523E-1
3.938835120E-1,1.905899495E-1,1.270599663E-1,7.341836691E-1
3.958835450E-1,1.844813079E-1,1.227839142E-1,7.213554978E-1
3.978835780E-1,1.814269722E-1,1.191187203E-1,7.152468562E-1
3.998836110E-1,1.789835095E-1,1.178969890E-1,6.981425881E-1
4.018836110E-1,1.783726513E-1,1.130100712E-1,6.804275513E-1
4.038836110E-1,1.832595766E-1,1.185078546E-1,6.743188500E-1
4.058827440E-1,1.740965992E-1,1.154535338E-1,6.517168880E-1
4.078818770E-1,1.820378453E-1,1.252273768E-1,6.346126199E-1
4.098810100E-1,1.869247705E-1,1.282816976E-1,6.254496574E-1
4.118801430E-1,1.881465018E-1,1.337794960E-1,6.089562774E-1
4.138792760E-1,1.985312104E-1,1.417207420E-1,5.955172777E-1
4.158792420E-1,1.966986060E-1,1.435533315E-1,5.900194645E-1
4.178792080E-1,2.125810981E-1,1.502728462E-1,5.747478604E-1
4.198791740E-1,2.247984111E-1,1.563815027E-1,5.674174428E-1
4.218791400E-1,2.272418737E-1,1.576032341E-1,5.668066144E-1
4.238791060E-1,2.302961946E-1,1.533271819E-1,5.588653684E-1
4.258799390E-1,2.486221492E-1,1.563815027E-1,5.588653684E-1
4.278807720E-1,2.504547536E-1,1.521054506E-1,5.600870848E-1
4.298816050E-1,2.467895597E-1,1.508837193E-1,5.606979132E-1
4.318824710E-1,2.486221492E-1,1.521054506E-1,5.680283308E-1
4.338825040E-1,2.516764700E-1,1.576032341E-1,5.735260844E-1
4.358825370E-1,2.412917763E-1,1.631010175E-1,5.826891065E-1
4.378825700E-1,2.364048511E-1,1.795943826E-1,5.985715985E-1
4.398826030E-1,2.339613885E-1,1.850921661E-1,6.071236730E-1
4.418826360E-1,2.229658216E-1,1.997529417E-1,6.242279410E-1
4.438835690E-1,2.015855312E-1,2.180788964E-1,6.468299627E-1
4.458831020E-1,1.887573600E-1,2.266310006E-1,6.535494328E-1
4.478822350E-1,1.649336219E-1,2.376265824E-1,6.755406260E-1
4.498813350E-1,1.325577646E-1,2.504547536E-1,6.895905137E-1
4.518806010E-1,1.233947799E-1,2.608394623E-1,6.987534761E-1
4.538805670E-1,8.307767659E-2,2.675589919E-1,7.134142518E-1
4.558805330E-1,6.169738993E-2,2.877175212E-1,7.274641395E-1
4.578804990E-1,4.153883830E-2,2.932153046E-1,7.335727811E-1
4.598806320E-1,1.832595654E-2,3.121521473E-1,7.451792359E-1
4.618806320E-1,-2.382374369E-2,3.164281845E-1,7.470118403E-1
4.638806320E-1,-4.337143153E-2,3.194825351E-1,7.470118403E-1
4.658815320E-1,-5.864306539E-2,3.353650272E-1,7.451792359E-1
4.678824320E-1,-8.002334833E-2,3.463605940E-1,7.366271019E-1
4.698833320E-1,-9.590584040E-2,3.469714522E-1,7.323510647E-1
4.718842320E-1,-9.834930301E-2,3.549126983E-1,7.286858559E-1
4.738851320E-1,-1.069014147E-1,3.567453027E-1,7.128033638E-1
4.758851650E-1,-1.185078546E-1,3.518583775E-1,7.042512894E-1
4.778851980E-1,-1.050688252E-1,3.500257730E-1,6.926448345E-1
4.798851980E-1,-9.407325089E-2,3.481931984E-1,6.749297380E-1
4.818851980E-1,-9.468411654E-2,3.463605940E-1,6.682102084E-1
4.838851980E-1,-8.002334833E-2,3.494149148E-1,6.596581340E-1
4.858843310E-1,-5.497787148E-2,3.549126983E-1,6.498842835E-1
4.878843310E-1,-4.337143153E-2,3.604104817E-1,6.486625075E-1
4.898836640E-1,-2.748893574E-2,3.714060783E-1,6.474407911E-1
4.918836640E-1,-1.221730490E-3,3.854559660E-1,6.498842835E-1
4.938836300E-1,2.199114859E-2,3.964515328E-1,6.523277164E-1
4.958835960E-1,3.787364438E-2,4.025602043E-1,6.614906788E-1
4.978835620E-1,6.597344577E-2,4.147774875E-1,6.706537008E-1
4.998835280E-1,7.452555746E-2,4.190535545E-1,6.785949469E-1
5.018834940E-1,9.162978828E-2,4.300491214E-1,6.865361929E-1
5.038834600E-1,1.062905490E-1,4.422664344E-1,6.999751925E-1
5.058842930E-1,1.319468915E-1,4.550946057E-1,7.140251398E-1
5.078851260E-1,1.392772794E-1,4.599815309E-1,7.225772142E-1
5.098859920E-1,1.466076523E-1,4.728097022E-1,7.360162735E-1
5.118867250E-1,1.612684280E-1,4.838052690E-1,7.482335567E-1
5.138867580E-1,1.747074574E-1,4.874704778E-1,7.573965192E-1
5.158867910E-1,1.783726513E-1,4.917465150E-1,7.677812576E-1
5.178868240E-1,1.814269722E-1,4.960225821E-1,7.775551081E-1
5.198866900E-1,1.991420686E-1,5.027421117E-1,7.848854661E-1
5.218867230E-1,2.119702399E-1,5.143485069E-1,7.964919209E-1
5.238867560E-1,2.083050460E-1,5.290092826E-1,8.026005626E-1
5.258858560E-1,2.186897546E-1,5.351179838E-1,8.111526966E-1
5.278849560E-1,2.260201424E-1,5.497786999E-1,8.270351887E-1
5.298849220E-1,2.327396572E-1,5.699372888E-1,8.410850763E-1
5.318848880E-1,2.406809032E-1,5.821545720E-1,8.520806432E-1
5.338848540E-1,2.535090744E-1,6.126978397E-1,8.740718365E-1
5.358848200E-1,2.767219543E-1,6.487388611E-1,8.991172910E-1
5.378847860E-1,2.834414840E-1,6.633996367E-1,9.162214994E-1
5.398847860E-1,3.054326177E-1,7.073819637E-1,9.504299760E-1
5.418847860E-1,3.262020350E-1,7.440338731E-1,9.858601689E-1
5.438848190E-1,3.481931984E-1,7.703011036E-1,1.005407810E0
5.458857190E-1,3.787364662E-1,8.142833710E-1,1.051833630E0
5.478857520E-1,4.050036669E-1,8.546004891E-1,1.098870158E0
5.498864520E-1,4.257730842E-1,8.741481900E-1,1.127580881E0
5.518864850E-1,4.642575979E-1,9.108000994E-1,1.180115342E0
5.538865180E-1,4.917465150E-1,9.431759119E-1,1.238758326E0
5.558865510E-1,5.094616413E-1,9.566149712E-1,1.270523310E0
5.578865840E-1,5.473352671E-1,9.822713137E-1,1.341383696E0
5.598865840E-1,5.797111392E-1,1.007927656E0,1.413465858E0
5.618865840E-1,5.937610269E-1,1.017090678E0,1.454393744E0
5.638865840E-1,6.194173694E-1,1.037249207E0,1.542969227E0
5.658857170E-1,6.389650702E-1,1.062294602E0,1.643761992E0
5.678848500E-1,6.469063163E-1,1.072679400E0,1.698739886E0
5.698839830E-1,6.688974500E-1,1.097724795E0,1.815415144E0
5.718833490E-1,6.731734872E-1,1.114829063E0,1.936977386E0
5.738833150E-1,6.817256212E-1,1.123992085E0,2.005394220E0
5.758832810E-1,6.927211881E-1,1.140485406E0,2.140395403E0
5.778832470E-1,6.951646209E-1,1.146594048E0,2.279061794E0
5.798832130E-1,6.976081133E-1,1.145983219E0,2.348700523E0
5.818831790E-1,7.067710757E-1,1.137431145E0,2.490421295E0
5.838831450E-1,7.153232098E-1,1.118494272E0,2.637028933E0
5.858840110E-1,7.281513810E-1,1.102000952E0,2.710332632E0
5.878848770E-1,7.611380816E-1,1.067792416E0,2.858772993E0
5.898849100E-1,7.635815740E-1,1.062294602E0,3.012100220E0
5.918849430E-1,7.812966704E-1,1.062294602E0,3.087847471E0
5.938855760E-1,8.148942590E-1,1.055575132E0,3.245450735E0
5.958856090E-1,8.393288255E-1,1.055575132E0,3.400610447E0
5.978860420E-1,8.588765264E-1,1.064738154E0,3.483077288E0
5.998860750E-1,8.778133392E-1,1.076955438E0,3.644345760E0
6.018861080E-1,8.979719281E-1,1.094059706E0,3.803781509E0
6.038861080E-1,9.108000994E-1,1.106276989E0,3.888080835E0
6.058852080E-1,9.321803451E-1,1.131322384E0,4.053014755E0
6.078843080E-1,9.450085163E-1,1.163087368E0,4.219170094E0
6.098834080E-1,9.688322544E-1,1.189965487E0,4.302858353E0
6.118825080E-1,9.755517840E-1,1.246165156E0,4.475122452E0
6.138824740E-1,9.792169929E-1,1.308473349E0,4.656549454E0
6.158824400E-1,9.957103729E-1,1.348179579E0,4.746957302E0
6.178824060E-1,9.993755221E-1,1.428813815E0,4.942434311E0
6.198824060E-1,9.896016717E-1,1.497841597E0,5.140965462E0
6.218824390E-1,9.773843884E-1,1.526552200E0,5.246034145E0
6.238824720E-1,9.639453292E-1,1.564425945E0,5.457393646E0
6.258833720E-1,9.340129495E-1,1.568701982E0,5.669974804E0
6.278842720E-1,9.224064946E-1,1.558317184E0,5.773211002E0
6.298851720E-1,9.040805697E-1,1.495398164E0,5.980294228E0
6.318858050E-1,8.949176073E-1,1.395827055E0,6.178214550E0
6.338858380E-1,8.900306821E-1,1.334740520E0,6.271677017E0
6.358858710E-1,9.175195694E-1,1.211345792E0,6.456158638E0
6.378858710E-1,8.863654733E-1,1.042136073E0,6.622313976E0
6.398858710E-1,9.077457786E-1,9.663888216E-1,6.709667683E0
6.418858710E-1,9.315695167E-1,8.026769161E-1,6.850166321E0
6.438858710E-1,9.688322544E-1,6.322455406E-1,6.980891705E0
6.458850040E-1,9.938777685E-1,5.455026627E-1,7.040756226E0
6.478841370E-1,1.061072946E0,3.817907870E-1,7.133607864E0
6.498832370E-1,1.129489779E0,2.296853364E-1,7.206300735E0
6.518823370E-1,1.167363524E0,1.600466967E-1,7.233789921E0
6.538808370E-1,1.273043156E0,3.298672289E-2,7.266776562E0
6.558804030E-1,1.378111959E0,-7.086037099E-2,7.272885323E0
6.578799690E-1,1.431257248E0,-1.178969890E-1,7.271052837E0
6.598799350E-1,1.558317184E0,-2.034181207E-1,7.244785309E0
6.618790010E-1,1.692707539E0,-2.791654170E-1,7.197748661E0
6.638789670E-1,1.758681059E0,-2.987131178E-1,7.179422855E0
6.658798330E-1,1.868636727E0,-2.541199327E-1,7.154377460E0
6.678807330E-1,1.964542627E0,-2.089159191E-1,7.133607864E0
6.698816330E-1,2.007303238E0,-2.125810981E-1,7.123834133E0
6.718825330E-1,2.083661318E0,-2.913827300E-1,7.090236664E0
6.738825660E-1,2.165517330E0,-4.300491214E-1,7.040756226E0
6.758825990E-1,2.210110426E0,-4.905247986E-1,7.016321659E0
6.778826320E-1,2.288912058E0,-5.644394755E-1,6.977226257E0
6.798826650E-1,2.364659309E0,-5.351179838E-1,6.948515892E0
6.818826650E-1,2.452013016E0,-4.514294267E-1,6.924081326E0
6.838826310E-1,2.478891134E0,-4.092797041E-1,6.913085461E0
6.858817310E-1,2.517375708E0,-3.365867436E-1,6.886818409E0
6.878816970E-1,2.538755894E0,-2.767219543E-1,6.867881775E0
6.898816630E-1,2.532647371E0,-2.602286041E-1,6.851388454E0
6.918816290E-1,2.496606350E0,-2.278527319E-1,6.822677612E0
6.938815950E-1,2.414139509E0,-2.021963894E-1,6.782971382E0
6.958820610E-1,2.359161615E0,-1.863138974E-1,6.762201786E0
6.978820610E-1,2.219273329E0,-1.545489132E-1,6.702948093E0
6.998820940E-1,2.029294252E0,-1.325577646E-1,6.635752678E0
7.018821270E-1,1.918116927E0,-1.209513173E-1,6.597268105E0
7.038821600E-1,1.665829539E0,-1.056796908E-1,6.496475697E0
7.058830600E-1,1.375057697E0,-9.590584040E-2,6.380411148E0
7.078839600E-1,1.211956620E0,-9.101892263E-2,6.314437866E0
7.098848600E-1,8.784242272E-1,-8.307767659E-2,6.156834602E0
7.118862930E-1,5.082398653E-1,-9.896016866E-2,5.990068436E0
7.138871930E-1,3.188716471E-1,-1.130100712E-1,5.903325558E0
7.158875930E-1,-7.208210230E-2,-1.606575549E-1,5.711513519E0
7.178875930E-1,-4.667010605E-1,-2.254092693E-1,5.519701958E0
7.198875930E-1,-6.652322412E-1,-2.535090744E-1,5.417687416E0
7.218884930E-1,-1.045801282E0,-2.981022298E-1,5.208160877E0
7.238884930E-1,-1.405600905E0,-3.359758854E-1,4.997412205E0
7.258876260E-1,-1.582751870E0,-3.549126983E-1,4.888678074E0
7.278867260E-1,-1.898569226E0,-4.062253833E-1,4.663269043E0
7.298866920E-1,-2.167960644E0,-4.886921942E-1,4.433583736E0
7.318866580E-1,-2.289522886E0,-5.418374538E-1,4.312021255E0
7.338866240E-1,-2.504547596E0,-6.597344875E-1,4.063399315E0
7.358865900E-1,-2.690861464E0,-7.819074988E-1,3.805003166E0
7.378865560E-1,-2.770884752E0,-8.405506015E-1,3.676110744E0
7.398865220E-1,-2.880840540E0,-9.260717034E-1,3.421990633E0
7.418864880E-1,-2.964529037E0,-9.957103729E-1,3.161762238E0
7.438864880E-1,-2.998126507E0,-1.026864529E0,3.038367271E0
7.458873880E-1,-3.034778595E0,-1.084285855E0,2.787301779E0
7.478874210E-1,-3.036000252E0,-1.133154988E0,2.537457943E0
7.498874540E-1,-3.038443804E0,-1.155146122E0,2.415895700E0
7.518874870E-1,-3.018285275E0,-1.174082994E0,2.181934357E0
7.538875200E-1,-2.971248627E0,-1.156978726E0,1.962022781E0
7.558870530E-1,-2.937650919E0,-1.137431145E0,1.856953979E0
7.578870860E-1,-2.885727406E0,-1.091616154E0,1.666974902E0
7.598870860E-1,-2.858238459E0,-1.061683774E0,1.495932579E0
7.618870520E-1,-2.845410347E0,-1.047633886E0,1.421407104E0
7.638870180E-1,-2.853962421E0,-1.038470864E0,1.285794973E0
7.658861180E-1,-2.916881561E0,-1.034805775E0,1.177671790E0
7.678852180E-1,-2.955976963E0,-1.028697014E0,1.134911299E0
7.698843180E-1,-3.077539206E0,-1.011592865E0,1.081766009E0
7.718837510E-1,-3.250413895E0,-9.853256345E-1,1.070770383E0
7.738837170E-1,-3.356704473E0,-9.700540304E-1,1.087263823E0
7.758837170E-1,-3.601050615E0,-9.486737251E-1,1.158124089E0
7.778837500E-1,-3.894876719E0,-9.254608750E-1,1.279075503E0
7.798837830E-1,-4.044538975E0,-8.985827565E-1,1.363985777E0
7.818838160E-1,-4.398840427E0,-8.319984674E-1,1.574123383E0
7.838838490E-1,-4.788572788E0,-7.403686643E-1,1.843514919E0
7.858847490E-1,-5.006040573E0,-6.969972253E-1,1.998674750E0
7.878856490E-1,-5.477628708E0,-6.139195561E-1,2.333428860E0
7.898856820E-1,-5.943108082E0,-5.192354321E-1,2.715219736E0
7.918857150E-1,-6.209445000E0,-4.966334403E-1,2.913750887E0
7.938857150E-1,-6.690196037E0,-4.025602043E-1,3.337691307E0
7.958857150E-1,-7.175834179E0,-2.370157093E-1,3.784844637E0
7.978857150E-1,-7.409184456E0,-1.313360333E-1,4.002923489E0
7.998853150E-1,-7.831292629E0,9.957103431E-2,4.392655849E0
8.043035760E-1,-8.277834892E0,2.486221492E-1,4.650440693E0
8.063035760E-1,-8.481863976E0,2.467895597E-1,4.718857765E0
8.083026760E-1,-8.808066368E0,1.123992056E-1,4.724966526E0
8.103017760E-1,-9.061574936E0,-1.557706445E-1,4.561254501E0
8.123008760E-1,-9.180693626E0,-3.420845270E-1,4.406094551E0
8.142999760E-1,-9.291871071E0,-7.336491346E-1,3.998036623E0
8.162990760E-1,-9.248499870E0,-1.172861218E0,3.423212528E0
8.182990420E-1,-9.183136940E0,-1.392161846E0,3.079906225E0
8.202990080E-1,-8.932071686E0,-1.728748679E0,2.291279078E0
8.222989740E-1,-8.567996025E0,-1.973705649E0,1.375592232E0
8.242989740E-1,-8.315097809E0,-2.034181356E0,8.752935529E-1
8.262990070E-1,-7.744549751E0,-2.059837580E0,-2.108248621E-1
8.282999070E-1,-7.120856285E0,-1.979814291E0,-1.360473275E0
8.303008070E-1,-6.741508961E0,-1.891238809E0,-1.956066847E0
8.323017070E-1,-5.925393105E0,-1.678046823E0,-3.170466900E0
8.343017400E-1,-5.057353497E0,-1.424537778E0,-4.368984699E0
8.363017730E-1,-4.629137039E0,-1.306029916E0,-4.957858562E0
8.383018060E-1,-3.711006403E0,-1.060462117E0,-6.099565983E0
8.403011390E-1,-2.834414721E0,-8.081747293E-1,-7.161860466E0
8.423007390E-1,-2.373211384E0,-6.407976151E-1,-7.651774406E0
8.443011390E-1,-1.499674201E0,-2.602286041E-1,-8.558298111E0
8.463011050E-1,-6.401867867E-1,2.052507252E-1,-9.327377319E0
8.483002050E-1,-2.199114859E-1,4.715879560E-1,-9.653579712E0
8.502993050E-1,5.937610269E-1,1.048855662E0,-1.018991947E1
8.522984050E-1,1.374446750E0,1.641394973E0,-1.056315804E1
8.542975050E-1,1.766011477E0,1.943773150E0,-1.068166637E1
8.562975050E-1,2.442239285E0,2.472782612E0,-1.082644081E1
8.582975380E-1,3.112358332E0,3.021950483E0,-1.081055832E1
8.602975710E-1,3.398854256E0,3.273015976E0,-1.073847675E1
8.622980040E-1,3.933972120E0,3.778201580E0,-1.049290848E1
8.642980370E-1,4.368297577E0,4.231463432E0,-1.010073280E1
8.662980700E-1,4.566217899E0,4.446487904E0,-9.853943825E0
8.682989700E-1,4.874704838E0,4.797124863E0,-9.274232864E0
8.702998700E-1,5.072625160E0,5.049412251E0,-8.586398125E0
8.723003700E-1,5.113553047E0,5.125770092E0,-8.214381218E0
8.743012360E-1,5.203960896E0,5.233282566E0,-7.411093712E0
8.763021020E-1,5.186856747E0,5.236947536E0,-6.574819088E0
8.783021020E-1,5.127603054E0,5.148372173E0,-5.706779480E0
8.803021020E-1,5.059796810E0,5.051855564E0,-5.278563023E0
8.823021020E-1,4.909523964E0,4.801400661E0,-4.431293011E0
8.843021020E-1,4.693888664E0,4.448320866E0,-3.605402946E0
8.863020680E-1,4.591263294E0,4.248567581E0,-3.198566675E0
8.883011340E-1,4.318817139E0,3.776979923E0,-2.403220177E0
8.903011000E-1,4.032932281E0,3.269961596E0,-1.628032207E0
8.923010660E-1,3.875940084E0,3.004846096E0,-1.252350092E0
8.943010320E-1,3.550348759E0,2.442239285E0,-5.223661661E-1
8.963009980E-1,3.221092463E0,1.874134541E0,1.862375438E-1
8.983009640E-1,3.051882744E0,1.585806131E0,5.271003246E-1
9.003015970E-1,2.720793724E0,9.993755221E-1,1.167897940E0
9.023019630E-1,2.431243658E0,4.404338300E-1,1.774487138E0
9.043015630E-1,2.287079573E0,1.618792862E-1,2.053652525E0
9.063011960E-1,2.034181356E0,-3.689626157E-1,2.576553345E0
9.083032960E-1,1.846034765E0,-8.539896011E-1,3.042032480E0
9.103041960E-1,1.753183246E0,-1.083674908E0,3.239341974E0
9.123050960E-1,1.627955914E0,-1.484402537E0,3.610137224E0
9.143059960E-1,1.564425945E0,-1.828930497E0,3.894189596E0
9.163060290E-1,1.537547827E0,-1.987755537E0,4.010253906E0
9.183060290E-1,1.512502313E0,-2.262644768E0,4.187405109E0
9.203059950E-1,1.551597714E0,-2.472782612E0,4.311410427E0
9.223059610E-1,1.603521228E0,-2.552195072E0,4.349895000E0
9.243059270E-1,1.690264106E0,-2.695748329E0,4.374329567E0
9.263058930E-1,1.815491557E0,-2.769663095E0,4.351727486E0
9.283049930E-1,1.900401831E0,-2.785545588E0,4.315686703E0
9.303040930E-1,2.048231125E0,-2.800206184E0,4.198400497E0
9.323044590E-1,2.224771261E0,-2.771495581E0,4.026136398E0
9.343044590E-1,2.316401005E0,-2.739119768E0,3.921067715E0
9.363044920E-1,2.486221552E0,-2.661539793E0,3.674278021E0
9.383046920E-1,2.668870211E0,-2.544864655E0,3.386560678E0
9.403047250E-1,2.751337051E0,-2.477058649E0,3.230179071E0
9.423047580E-1,2.883283854E0,-2.327396631E0,2.891148806E0
9.443047910E-1,3.003624439E0,-2.141693592E0,2.531960011E0
9.463048240E-1,3.072652102E0,-2.023796558E0,2.348700523E0
9.483057570E-1,3.133738756E0,-1.790446043E0,1.967520595E0
9.503057900E-1,3.199101210E0,-1.505782843E0,1.580842853E0
9.523057900E-1,3.220481634E0,-1.350623012E0,1.391474724E0
9.543057900E-1,3.230866194E0,-1.034194827E0,1.006018758E0
9.563057900E-1,3.208875179E0,-7.220427394E-1,6.236170530E-1
9.583057900E-1,3.210096836E0,-5.601634383E-1,4.373031557E-1
9.603057900E-1,3.175277472E0,-2.547308207E-1,7.383833826E-2
9.623057900E-1,3.098308563E0,1.832595654E-2,-2.749657333E-1
9.643057560E-1,3.072652102E0,1.545489132E-1,-4.423427880E-1
9.663061220E-1,2.981022358E0,3.854559660E-1,-7.667122483E-1
9.683040220E-1,2.865568876E0,6.017022729E-1,-1.069090486E0
9.703031220E-1,2.805704117E0,6.963863969E-1,-1.204702616E0
9.723022220E-1,2.661539793E0,8.497135639E-1,-1.463098645E0
9.743013220E-1,2.522873402E0,1.017701507E0,-1.689118743E0
9.763012880E-1,2.459343433E0,1.092227101E0,-1.785024643E0
9.783012540E-1,2.289522886E0,1.219287038E0,-1.958510280E0
9.803012540E-1,2.155743361E0,1.354899168E0,-2.099009275E0
9.823012870E-1,2.043955088E0,1.392772794E0,-2.158263206E0
9.843013200E-1,1.894904017E0,1.481348276E0,-2.241951704E0
9.863013530E-1,1.725694299E0,1.533882618E0,-2.301816702E0
9.883022530E-1,1.654223084E0,1.554652095E0,-2.314033985E0
9.903031530E-1,1.504561067E0,1.583362699E0,-2.313423157E0
9.923031860E-1,1.388496757E0,1.590082288E0,-2.288988352E0
9.943032190E-1,1.296256065E0,1.565036774E0,-2.266997337E0
9.963032190E-1,1.194852471E0,1.532050014E0,-2.191250086E0
9.983030190E-1,1.087340117E0,1.451415777E0,-2.108783245E0
1.000302985E0,1.030529618E0,1.395827055E0,-2.056248665E0
1.002302951E0,9.486737251E-1,1.276708364E0,-1.935908318E0
1.004302917E0,8.637634516E-1,1.141096234E0,-1.813124418E0
1.006302883E0,8.124507666E-1,1.062905550E0,-1.750816107E0
1.008301983E0,7.666358948E-1,9.224064946E-1,-1.598710656E0
1.010301083E0,7.202101350E-1,7.709119320E-1,-1.460655212E0
1.012300216E0,6.829473376E-1,6.908885837E-1,-1.387351274E0
1.014299349E0,6.450737119E-1,5.393940210E-1,-1.237689376E0
1.016299349E0,5.974262357E-1,3.811798990E-1,-1.098412037E0
1.018299349E0,5.827654600E-1,3.072652221E-1,-1.034271240E0
1.020299349E0,5.503895879E-1,1.637118906E-1,-9.072112441E-1
1.022299349E0,5.155702829E-1,2.565634064E-2,-7.954229116E-1
1.024299349E0,4.948008358E-1,-4.825835302E-2,-7.459428310E-1
1.026299349E0,4.880813360E-1,-1.612684280E-1,-6.506478190E-1
1.028300215E0,4.612032473E-1,-2.706133127E-1,-5.718462467E-1
1.030301115E0,4.263839424E-1,-3.390302062E-1,-5.468007326E-1
1.032302015E0,4.331034720E-1,-4.331034720E-1,-4.948772192E-1
1.034302915E0,3.995058835E-1,-5.131267905E-1,-4.661665261E-1
1.036302948E0,3.836233616E-1,-5.522221923E-1,-4.570035636E-1
1.038302981E0,3.769038618E-1,-6.169738770E-1,-4.539492428E-1
1.040303014E0,3.292563558E-1,-6.829473376E-1,-4.704425931E-1
1.042303014E0,3.023782969E-1,-7.073819637E-1,-4.844925106E-1
1.044303014E0,2.962696552E-1,-7.379252315E-1,-5.223661661E-1
1.046302980E0,2.583959997E-1,-7.886270285E-1,-5.797874928E-1
1.048302080E0,2.614503205E-1,-8.038986921E-1,-6.097198725E-1
1.050301180E0,1.985312104E-1,-8.423831463E-1,-6.805802584E-1
1.052300280E0,1.728748679E-1,-8.374962807E-1,-7.593818307E-1
1.054299446E0,1.429424733E-1,-8.533787727E-1,-8.021424413E-1
1.056298546E0,1.087340117E-1,-8.533787727E-1,-8.937721848E-1
1.058298546E0,4.031710699E-2,-8.674286604E-1,-9.896780849E-1
1.060298546E0,6.108652335E-3,-8.723155856E-1,-1.085583925E0
1.062298579E0,2.443460980E-3,-8.643743396E-1,-1.135674834E0
1.064298612E0,-5.742133409E-2,-8.692612648E-1,-1.239521980E0
1.066298645E0,-1.337794960E-1,-8.778133392E-1,-1.342758179E0
1.068299545E0,-1.417207420E-1,-8.643743396E-1,-1.389183879E0
1.070300445E0,-1.777617931E-1,-8.405506015E-1,-1.486311555E0
1.072301345E0,-2.480112910E-1,-8.032878041E-1,-1.577941298E0
1.074302245E0,-2.816088796E-1,-7.794640660E-1,-1.620090961E0
1.076302245E0,-3.292563558E-1,-7.257078886E-1,-1.702557802E0
1.078302245E0,-3.597996235E-1,-6.371324658E-1,-1.774639845E0
1.080302245E0,-3.878994286E-1,-5.900958180E-1,-1.805183172E0
1.082302245E0,-4.776966274E-1,-5.155702829E-1,-1.869323969E0
1.084302245E0,-5.253441334E-1,-4.269948006E-1,-1.920636654E0
1.086302245E0,-5.455026627E-1,-3.744603992E-1,-1.944460392E0
1.088301378E0,-6.065891981E-1,-2.809980214E-1,-1.982334137E0
1.090301344E0,-6.548475623E-1,-2.009746730E-1,-2.017764330E0
1.092301310E0,-6.731734872E-1,-1.612684280E-1,-2.031203270E0
1.094301276E0,-7.269296646E-1,-8.185594529E-2,-2.056859732E0
1.096301242E0,-7.935139537E-1,-2.138028294E-2,-2.089846373E0
1.098301208E0,-7.837401032E-1,3.176499158E-2,-2.097787619E0
1.100301174E0,-8.002334833E-1,1.007927656E-1,-2.122222185E0
1.102301140E0,-8.588765264E-1,1.594358236E-1,-2.152154684E0
1.104301106E0,-8.692612648E-1,1.814269722E-1,-2.168648005E0
1.106301106E0,-8.900306821E-1,2.345722616E-1,-2.202856541E0
1.108302006E0,-8.961393237E-1,2.840523422E-1,-2.241951704E0
1.110302906E0,-9.224064946E-1,2.987131178E-1,-2.263942957E0
1.112303806E0,-9.498954415E-1,3.292563558E-1,-2.311590433E0
1.114304639E0,-9.792169929E-1,3.481931984E-1,-2.364735603E0
1.116305539E0,-9.877691269E-1,3.665191531E-1,-2.391002893E0
1.118305572E0,-1.021977544E0,3.830125034E-1,-2.445980787E0
1.120305605E0,-1.075122833E0,3.927863538E-1,-2.511954308E0
1.122305605E0,-1.067792416E0,4.105014503E-1,-2.543108463E0
1.124305571E0,-1.114218235E0,4.294382632E-1,-2.607860088E0
1.126305537E0,-1.143539786E0,4.624249935E-1,-2.673833609E0
1.128304637E0,-1.154535294E0,4.764748812E-1,-2.711096287E0
1.130303737E0,-1.189354658E0,5.112941861E-1,-2.776458979E0
1.132303703E0,-1.259604096E0,5.259549618E-1,-2.844875813E0
1.134303669E0,-1.284649611E0,5.357288122E-1,-2.877251625E0
1.136303669E0,-1.283427835E0,5.650503635E-1,-2.945057631E0
1.138303669E0,-1.326799273E0,5.650503635E-1,-3.012863636E0
1.140303702E0,-1.347568750E0,5.656611919E-1,-3.044017792E0
1.142303735E0,-1.359175205E0,5.668829679E-1,-3.106326103E0
1.144303768E0,-1.361618638E0,5.571091175E-1,-3.165580034E0
1.146303801E0,-1.364062071E0,5.546656251E-1,-3.191236496E0
1.148304701E0,-1.367727280E0,5.503895879E-1,-3.241938114E0
1.150304734E0,-1.368338108E0,5.375614166E-1,-3.285309553E0
1.152304767E0,-1.348179579E0,5.393940210E-1,-3.306079149E0
1.154304767E0,-1.326799273E0,5.314527750E-1,-3.337233305E0
1.156304767E0,-1.269988894E0,5.338962078E-1,-3.362889528E0
1.158304767E0,-1.252273798E0,5.210680366E-1,-3.372052431E0
1.160304767E0,-1.194852471E0,5.057964325E-1,-3.384880781E0
1.162304767E0,-1.163698316E0,4.721988440E-1,-3.394043684E0
1.164304767E0,-1.118494272E0,4.709770977E-1,-3.391600132E0
1.166304767E0,-1.026253581E0,4.679227769E-1,-3.383048058E0
1.168303867E0,-9.425650835E-1,4.563163519E-1,-3.376328468E0
1.170302967E0,-9.028588533E-1,4.502076805E-1,-3.364722013E0
1.172302067E0,-8.087855577E-1,4.276056588E-1,-3.342120171E0
1.174302033E0,-7.263187766E-1,4.068362415E-1,-3.317685604E0
1.176301999E0,-6.841690540E-1,3.860668242E-1,-3.301192045E0
1.178301965E0,-5.913175344E-1,3.494149148E-1,-3.264540195E0
1.180301931E0,-5.100724697E-1,3.072652221E-1,-3.226666689E0
1.182301897E0,-4.679227769E-1,2.864958048E-1,-3.207118988E0
1.184301897E0,-3.946189582E-1,2.357939780E-1,-3.161303997E0
1.186301930E0,-3.335324228E-1,1.734857261E-1,-3.116710901E0
1.188302830E0,-3.023782969E-1,1.521054506E-1,-3.092276335E0
1.190303730E0,-2.321287990E-1,1.087340117E-1,-3.033633232E0
1.192303763E0,-1.863138974E-1,5.192354694E-2,-2.979266167E0
1.194303796E0,-1.582140923E-1,3.054326214E-2,-2.949944735E0
1.196303829E0,-1.453859210E-1,-2.321287990E-2,-2.890690804E0
1.198303862E0,-1.221730486E-1,-6.108652428E-2,-2.827771664E0
1.200303862E0,-1.038470939E-1,-7.147123665E-2,-2.794784784E0
1.202303828E0,-9.285151958E-2,-9.712757170E-2,-2.728811502E0
1.204303794E0,-1.026253626E-1,-1.111774743E-1,-2.664670467E0
1.206303760E0,-9.224065393E-2,-1.044579595E-1,-2.633516312E0
1.208302860E0,-1.246165112E-1,-1.105666086E-1,-2.568764687E0
1.210301960E0,-1.282816976E-1,-1.069014147E-1,-2.507067442E0
1.212301060E0,-1.649336219E-1,-1.136209369E-1,-2.477134943E0
1.214300160E0,-1.979203373E-1,-9.896016866E-2,-2.413604975E0
1.216300160E0,-2.376265824E-1,-9.407325089E-2,-2.360459566E0
1.218300193E0,-2.394591719E-1,-7.819075137E-2,-2.332970619E0
1.220300226E0,-3.005456924E-1,-7.147123665E-2,-2.280436277E0
1.222300259E0,-3.475823104E-1,-6.963863969E-2,-2.232788801E0
1.224300292E0,-3.878994286E-1,-8.185594529E-2,-2.215073824E0
1.226300325E0,-4.440990388E-1,-7.880161703E-2,-2.174145699E0
1.228301225E0,-4.838052690E-1,-7.880161703E-2,-2.136883020E0
1.230302125E0,-4.978551865E-1,-8.063421398E-2,-2.120389700E0
1.232302991E0,-5.491678715E-1,-7.452555746E-2,-2.093511581E0
1.234302991E0,-6.200281978E-1,-7.819075137E-2,-2.070909500E0
1.236302991E0,-6.261368990E-1,-6.536258012E-2,-2.058692217E0
1.238302991E0,-6.572909951E-1,-4.276056588E-2,-2.047085762E0
1.240302991E0,-7.061602473E-1,-9.773843922E-3,-2.036090136E0
1.242302991E0,-7.141014934E-1,1.221730467E-2,-2.031203270E0
1.244302991E0,-7.415903807E-1,4.337143153E-2,-2.033646822E0
1.246302957E0,-7.568620443E-1,8.185594529E-2,-2.036701202E0
1.248302057E0,-7.812966704E-1,8.674286306E-2,-2.040366173E0
1.250301157E0,-8.020660877E-1,1.099557430E-1,-2.053194523E0
1.252300257E0,-8.051204085E-1,1.264491081E-1,-2.066633463E0
1.254299357E0,-7.971791625E-1,1.398881376E-1,-2.073353052E0
1.256298423E0,-8.045095205E-1,1.484402567E-1,-2.088013649E0
1.258298389E0,-8.210029006E-1,1.447750628E-1,-2.110004902E0
1.260298355E0,-8.497135639E-1,1.258382350E-1,-2.128330946E0
1.262298555E0,-7.996225953E-1,1.582140923E-1,-2.129552603E0
1.264298588E0,-8.411614299E-1,1.404990107E-1,-2.151543856E0
1.266298621E0,-8.100073338E-1,1.637118906E-1,-2.158874035E0
1.268299521E0,-8.087855577E-1,1.661553532E-1,-2.164982796E0
1.270300421E0,-8.100073338E-1,1.753183305E-1,-2.171091557E0
1.272301321E0,-8.234463334E-1,1.704314053E-1,-2.176589251E0
1.274302254E0,-8.173376918E-1,1.783726513E-1,-2.178421736E0
1.276302287E0,-8.246681094E-1,1.747074574E-1,-2.174145699E0
1.278302287E0,-8.100073338E-1,1.875356287E-1,-2.166204453E0
1.280302253E0,-8.081747293E-1,1.832595766E-1,-2.156430721E0
1.282302219E0,-8.069530129E-1,1.863138974E-1,-2.142991543E0
1.284302185E0,-8.313875794E-1,1.777617931E-1,-2.119778872E0
1.286302151E0,-8.148942590E-1,1.887573600E-1,-2.106950521E0
1.288301251E0,-8.100073338E-1,1.899790913E-1,-2.078850746E0
1.290301217E0,-8.216137290E-1,1.850921661E-1,-2.051361799E0
1.292301217E0,-8.148942590E-1,1.857030392E-1,-2.034868479E0
1.294301217E0,-8.191702962E-1,1.740965992E-1,-2.008601189E0
1.296301250E0,-7.977899909E-1,1.704314053E-1,-1.979279757E0
1.298301283E0,-8.008443117E-1,1.594358236E-1,-1.962175488E0
1.300301316E0,-7.941248417E-1,1.374446750E-1,-1.937740922E0
1.302301349E0,-7.849618196E-1,1.075122803E-1,-1.912695408E0
1.304301382E0,-7.733554244E-1,8.979719132E-2,-1.902310729E0
1.306301415E0,-7.538077235E-1,6.169738993E-2,-1.880930424E0
1.308302315E0,-7.580837607E-1,2.565634064E-2,-1.860771894E0
1.310303215E0,-7.312057018E-1,1.343903504E-2,-1.852830648E0
1.312304081E0,-6.872233748E-1,-2.443460980E-3,-1.826563478E0
1.314304947E0,-6.994407177E-1,-4.581489414E-2,-1.811902642E0
1.316305847E0,-6.817256212E-1,-5.131268129E-2,-1.801517963E0
1.318305847E0,-6.316346526E-1,-6.047565863E-2,-1.778916001E0
1.320305847E0,-6.139195561E-1,-8.063421398E-2,-1.758757353E0
1.322305647E0,-6.298020482E-1,-1.056796908E-1,-1.753259659E0
1.324305613E0,-5.693264008E-1,-1.050688252E-1,-1.729435921E0
1.326305579E0,-5.387831330E-1,-1.166752651E-1,-1.714775085E0
1.328304679E0,-5.308418870E-1,-1.307251602E-1,-1.703779578E0
1.330303779E0,-4.868595898E-1,-1.368338168E-1,-1.685453534E0
1.332303745E0,-4.593706727E-1,-1.594358236E-1,-1.670792818E0
1.334303711E0,-4.416555762E-1,-1.734857261E-1,-1.660408139E0
1.336303677E0,-4.001167417E-1,-1.905899495E-1,-1.639027834E0
1.338303643E0,-3.720169365E-1,-2.168571651E-1,-1.619480133E0
1.340303643E0,-3.347541690E-1,-2.205223590E-1,-1.607262850E0
1.342303676E0,-3.060434759E-1,-2.535090744E-1,-1.582828164E0
1.344303709E0,-2.779437006E-1,-2.858849466E-1,-1.557171822E0
1.346303742E0,-2.522873580E-1,-3.005456924E-1,-1.541900277E0
1.348304642E0,-2.309070677E-1,-3.237585723E-1,-1.507691741E0
1.350304675E0,-2.046398520E-1,-3.414736688E-1,-1.474094152E0
1.352304708E0,-1.857030392E-1,-3.475823104E-1,-1.456990004E0
1.354305974E0,-1.838704348E-1,-3.610213697E-1,-1.419116378E0
1.356305974E0,-1.649336219E-1,-3.640756905E-1,-1.380020976E0
1.358305940E0,-1.527163088E-1,-3.640756905E-1,-1.358640671E0
1.360305906E0,-1.343903542E-1,-3.512475193E-1,-1.317101836E0
1.362305872E0,-1.166752651E-1,-3.378084898E-1,-1.272508621E0
1.364305838E0,-1.093448773E-1,-3.237585723E-1,-1.250517488E0
1.366305804E0,-1.240056455E-1,-3.109304011E-1,-1.213865638E0
1.368304904E0,-1.166752651E-1,-2.871066630E-1,-1.169272423E0
1.370304004E0,-1.295034289E-1,-2.852740586E-1,-1.154611707E0
1.372303137E0,-1.417207420E-1,-2.675589919E-1,-1.118570566E0
1.374302303E0,-1.203404516E-1,-2.388483137E-1,-1.081918716E0
1.376302336E0,-1.075122803E-1,-2.211332172E-1,-1.063592792E0
1.378302369E0,-1.178969890E-1,-2.083050460E-1,-1.039769053E0
1.380302402E0,-1.123992056E-1,-1.966986060E-1,-1.015945315E0
1.382302435E0,-1.081231460E-1,-1.936442852E-1,-1.009225726E0
1.384302468E0,-1.142318025E-1,-1.936442852E-1,-9.994518757E-1
1.386302501E0,-1.044579595E-1,-1.905899495E-1,-9.908998013E-1
1.388303401E0,-9.590584040E-2,-1.899790913E-1,-9.902889132E-1
1.390304267E0,-8.857546002E-2,-1.954768747E-1,-9.921215177E-1
1.392304267E0,-8.613199741E-2,-2.101376504E-1,-9.976193309E-1
1.394304267E0,-7.513642311E-2,-2.162462920E-1,-1.001284480E0
1.396304267E0,-7.208210230E-2,-2.321287990E-1,-1.021443009E0
1.398304267E0,-3.115412779E-2,-2.443460971E-1,-1.032438636E0
1.400304267E0,-2.504547499E-2,-2.577851415E-1,-1.040379882E0
1.402304233E0,-2.932153270E-2,-2.345722616E-1,-1.075810075E0
1.404304199E0,-1.832595654E-2,-1.044579595E-1,-1.125900984E0
1.406304165E0,0.000000000E0,-3.909537569E-2,-1.149113894E0
1.408303265E0,-4.886921961E-3,2.809980139E-2,-1.203480840E0
1.410302365E0,-8.552113548E-3,6.352998316E-2,-1.240743637E0
1.412301465E0,1.221730467E-2,8.918632567E-2,-1.262734771E0
1.414299331E0,-1.221730490E-3,1.026253626E-1,-1.307938814E0
1.416299297E0,-1.588249579E-2,1.038470939E-1,-1.352532029E0
1.418299297E0,-1.343903504E-2,1.081231460E-1,-1.370247126E0
1.420299330E0,1.221730490E-3,1.270599663E-1,-1.407509923E0
1.422299363E0,-1.649336144E-2,1.398881376E-1,-1.442940116E0
1.424299396E0,-3.420845419E-2,1.331686229E-1,-1.458822608E0
1.426299429E0,-2.626720630E-2,1.631010175E-1,-1.488144040E0
1.428300329E0,-4.886921868E-2,1.912008226E-1,-1.506470084E0
1.430301229E0,-4.703662544E-2,2.138028294E-1,-1.512578726E0
1.432302129E0,-5.070181563E-2,2.443460971E-1,-1.521130800E0
1.434302995E0,-7.330382615E-2,2.718350291E-1,-1.530293822E0
1.436302961E0,-9.285151958E-2,2.785545588E-1,-1.529682875E0
1.438302927E0,-6.658431143E-2,2.913827300E-1,-1.529072046E0
1.440302893E0,-8.429940045E-2,2.583959997E-1,-1.540678501E0
1.442302859E0,-9.529497474E-2,3.097086847E-1,-1.537624121E0
1.444302825E0,-8.674286306E-2,3.304781020E-1,-1.526017785E0
1.446302791E0,-1.111774743E-1,3.048217595E-1,-1.508913517E0
1.448301891E0,-1.001819000E-1,2.913827300E-1,-1.497917891E0
1.450301024E0,-1.191187203E-1,2.400700450E-1,-1.482035398E0
1.452300190E0,-1.350012124E-1,2.009746730E-1,-1.466152906E0
1.454299356E0,-1.301143020E-1,1.802052408E-1,-1.460655212E0
1.456298522E0,-1.221730486E-1,1.270599663E-1,-1.441718340E0
1.458298555E0,-1.295034289E-1,6.108652451E-4,-1.416672826E0
1.460298588E0,-1.417207420E-1,-2.015855312E-1,-1.373912334E0
1.462298621E0,-1.166752651E-1,-3.127630055E-1,-1.345812440E0
1.464298654E0,-9.468411654E-2,-5.064072609E-1,-1.278006434E0
1.466298687E0,-1.044579595E-1,-6.230825782E-1,-1.208978653E0
1.468299553E0,-9.651670605E-2,-6.456845403E-1,-1.172326803E0
1.470300419E0,-8.368854225E-2,-6.481280327E-1,-1.097801208E0
1.472301285E0,-1.099557430E-1,-6.401867867E-1,-1.020221353E0
1.474302151E0,-1.197295859E-1,-6.328563690E-1,-9.841802716E-1
1.476302151E0,-1.441642046E-1,-6.023131609E-1,-9.053786397E-1
1.478302151E0,-1.973094791E-1,-5.797111392E-1,-8.332965374E-1
1.480302117E0,-1.918116808E-1,-5.601634383E-1,-7.917577028E-1
1.482302083E0,-2.388483137E-1,-5.668829679E-1,-7.294494510E-1
1.484302049E0,-2.907718420E-1,-5.784893632E-1,-6.659194827E-1
1.486302015E0,-3.213151097E-1,-5.882632136E-1,-6.347653270E-1
1.488301115E0,-3.897320330E-1,-6.114761233E-1,-5.871178508E-1
1.490301081E0,-4.214970171E-1,-6.163630486E-1,-5.400812626E-1
1.492301047E0,-4.618141353E-1,-6.298020482E-1,-5.174792409E-1
1.494301013E0,-5.259549618E-1,-6.456845403E-1,-4.851033688E-1
1.496301013E0,-5.791002512E-1,-6.725626588E-1,-4.570035636E-1
1.498301046E0,-6.035348773E-1,-6.823364496E-1,-4.423427880E-1
1.500301079E0,-6.432411075E-1,-6.957755089E-1,-4.197407961E-1
1.502301112E0,-7.305948138E-1,-7.269296646E-1,-4.063017368E-1
1.504301145E0,-7.354817390E-1,-7.275404930E-1,-3.953061700E-1
1.506301178E0,-7.757988572E-1,-7.440338731E-1,-3.855323195E-1
1.508302078E0,-8.032878041E-1,-7.336491346E-1,-3.733150363E-1
1.510302978E0,-8.118399382E-1,-7.269296646E-1,-3.665955067E-1
1.512303844E0,-8.570439219E-1,-7.305948138E-1,-3.623194396E-1
1.514304677E0,-8.674286604E-1,-7.134906054E-1,-3.562107980E-1
1.516305510E0,-8.820894361E-1,-7.006624341E-1,-3.525456190E-1
1.518305476E0,-9.095783234E-1,-6.750060916E-1,-3.494912684E-1
1.520305442E0,-8.912523985E-1,-6.352998614E-1,-3.525456190E-1
1.522305408E0,-9.095783234E-1,-6.291912198E-1,-3.549890518E-1
1.524305374E0,-9.450085163E-1,-6.114761233E-1,-3.629303277E-1
1.526305340E0,-9.443976879E-1,-5.821545720E-1,-3.745367527E-1
1.528304506E0,-9.187413454E-1,-5.546656251E-1,-3.812562823E-1
1.530303672E0,-9.089674950E-1,-5.326744914E-1,-3.995822370E-1
1.532303705E0,-9.083566070E-1,-4.935791194E-1,-4.221842289E-1
1.534303738E0,-9.065240026E-1,-4.728097022E-1,-4.325689375E-1
1.536303771E0,-8.564330935E-1,-4.184426963E-1,-4.600578845E-1
1.538303804E0,-8.613200188E-1,-3.555235863E-1,-4.906011522E-1
1.540303837E0,-8.509352803E-1,-3.133738637E-1,-5.003749728E-1
1.542303870E0,-8.228355050E-1,-2.309070677E-1,-5.229769945E-1
1.544303903E0,-8.087855577E-1,-1.563815027E-1,-5.486333370E-1
1.546303903E0,-8.014551997E-1,-1.111774743E-1,-5.565745831E-1
1.548304769E0,-7.678576112E-1,-2.504547499E-2,-5.694027543E-1
1.550304769E0,-7.611380816E-1,4.581489414E-2,-5.895613432E-1
1.552304769E0,-7.275404930E-1,1.014036313E-1,-5.907830596E-1
1.554304769E0,-7.269296646E-1,1.661553532E-1,-5.987243056E-1
1.556304769E0,-6.951646209E-1,2.431243658E-1,-6.054438353E-1
1.558304735E0,-6.866125464E-1,2.632829249E-1,-6.072764397E-1
1.560304701E0,-6.927211881E-1,2.962696552E-1,-6.158285141E-1
1.562304667E0,-6.615670323E-1,3.292563558E-1,-6.231589317E-1
1.564304633E0,-6.462954283E-1,3.262020350E-1,-6.292675734E-1
1.566304599E0,-6.395758986E-1,2.999348342E-1,-6.390414238E-1
1.568303699E0,-6.236934066E-1,2.590068579E-1,-6.518695951E-1
1.570302799E0,-6.090326309E-1,2.370157093E-1,-6.567565203E-1
1.572301899E0,-5.980370641E-1,1.673770845E-1,-6.689738035E-1
1.574301032E0,-5.968153477E-1,1.032362282E-1,-6.860780120E-1
1.576301065E0,-5.729916096E-1,8.857546002E-2,-6.879106164E-1
1.578301098E0,-5.485569835E-1,3.909537569E-2,-6.976844668E-1
1.580301131E0,-5.100724697E-1,1.221730490E-3,-7.068474293E-1
1.582301164E0,-5.039638281E-1,-1.404990070E-2,-7.105126381E-1
1.584301197E0,-4.770857692E-1,-2.748893574E-2,-7.111235261E-1
1.586301230E0,-4.502076805E-1,-4.092797264E-2,-7.184538841E-1
1.588302096E0,-4.257730842E-1,-4.520402849E-2,-7.160104513E-1
1.590302962E0,-4.141666293E-1,-4.764748737E-2,-7.147886753E-1
1.592302928E0,-3.903428912E-1,-2.565634064E-2,-7.196756005E-1
1.594302894E0,-3.646865487E-1,-7.941247895E-3,-7.166212797E-1
1.596302860E0,-3.762930036E-1,-3.665191587E-3,-7.196756005E-1
1.598302826E0,-3.744603992E-1,1.954768784E-2,-7.251734138E-1
1.600302792E0,-3.695734739E-1,3.543018550E-2,-7.331146598E-1
1.602302758E0,-3.365867436E-1,8.246681094E-2,-7.355580926E-1
1.604302724E0,-3.524692357E-1,1.154535338E-1,-7.532731891E-1
1.606302724E0,-3.573561609E-1,1.325577646E-1,-7.606036067E-1
1.608301890E0,-3.854559660E-1,1.618792862E-1,-7.832056284E-1
1.610301056E0,-3.756821156E-1,2.193006277E-1,-8.058075905E-1
1.612300222E0,-3.885102868E-1,2.382374406E-1,-8.204683661E-1
1.614299388E0,-4.404338300E-1,2.675589919E-1,-8.510116339E-1
1.616299354E0,-4.569272101E-1,3.176499307E-1,-8.901070356E-1
1.618299387E0,-5.222898126E-1,3.347541690E-1,-9.090438485E-1
1.620299420E0,-5.094616413E-1,3.915646076E-1,-9.481391907E-1
1.622299453E0,-5.693264008E-1,4.355469346E-1,-9.945649505E-1
1.624299453E0,-6.010913849E-1,4.850270152E-1,-1.044655919E0
1.626299453E0,-6.206390858E-1,5.125159621E-1,-1.071534038E0
1.628300319E0,-6.640105247E-1,5.760459304E-1,-1.125900984E0
1.630301185E0,-7.354817390E-1,6.377432942E-1,-1.192485332E0
1.632302051E0,-7.641924024E-1,6.640105247E-1,-1.224250317E0
1.634302917E0,-8.295549750E-1,7.110471725E-1,-1.290834665E0
1.636302883E0,-8.949176073E-1,7.452555895E-1,-1.351921201E0
1.638302849E0,-9.388998747E-1,7.434229851E-1,-1.382464409E0
1.640302815E0,-9.957103729E-1,7.428121567E-1,-1.431944489E0
1.642302781E0,-1.070846796E0,7.226535678E-1,-1.474094152E0
1.644302747E0,-1.081231475E0,7.299839854E-1,-1.493031025E0
1.646302713E0,-1.169806957E0,6.866125464E-1,-1.529072046E0
1.648301813E0,-1.175915599E0,6.835582256E-1,-1.538235068E0
1.650300913E0,-1.233336926E0,6.395758986E-1,-1.561447978E0
1.652300046E0,-1.298088670E0,5.760459304E-1,-1.569389224E0
1.654299212E0,-1.291980028E0,5.589417219E-1,-1.570000052E0
1.656298378E0,-1.323134065E0,4.960225821E-1,-1.571832657E0
1.658298411E0,-1.356120825E0,4.379903674E-1,-1.565724015E0
1.660298444E0,-1.376890302E0,3.805690408E-1,-1.555339217E0
1.662298477E0,-1.375057697E0,3.524692357E-1,-1.550452352E0
1.664298510E0,-1.385442376E0,2.938261926E-1,-1.535791636E0
1.666298543E0,-1.393994451E0,2.260201424E-1,-1.519298196E0
1.668299409E0,-1.395216227E0,1.844813079E-1,-1.513800383E0
1.670300242E0,-1.378722906E0,1.087340117E-1,-1.494863629E0
1.672301075E0,-1.364062071E0,3.054326214E-2,-1.472872496E0
1.674301908E0,-1.337184072E0,3.054326167E-3,-1.461876869E0
1.676301941E0,-1.310916781E0,-5.803219974E-2,-1.425225019E0
1.678301907E0,-1.265101910E0,-1.166752651E-1,-1.386129618E0
1.680301873E0,-1.255938888E0,-1.612684280E-1,-1.364749312E0
1.682301839E0,-1.203404546E0,-2.217440903E-1,-1.312825799E0
1.684301839E0,-1.153924465E0,-2.687807083E-1,-1.252960920E0
1.686301872E0,-1.133765936E0,-2.926044464E-1,-1.218752503E0
1.688301038E0,-1.062905550E0,-3.200933933E-1,-1.147892118E0
1.690301071E0,-1.025031924E0,-3.451388776E-1,-1.070923090E0
1.692301104E0,-9.993755221E-1,-3.518583775E-1,-1.034271240E0
1.694301137E0,-9.272934198E-1,-3.671300113E-1,-9.530261159E-1
1.696301170E0,-8.686503768E-1,-3.750712574E-1,-8.730027676E-1
1.698301203E0,-8.399397135E-1,-3.762930036E-1,-8.363508582E-1
1.700301236E0,-7.904596329E-1,-3.817907870E-1,-7.624362111E-1
1.702301236E0,-7.165449262E-1,-3.646865487E-1,-6.958518624E-1
1.704301236E0,-7.165449262E-1,-3.726277947E-1,-6.665303111E-1
1.706301236E0,-6.591235995E-1,-3.396410644E-1,-6.182720065E-1
1.708302102E0,-6.316346526E-1,-3.158173263E-1,-5.810092092E-1
1.710302968E0,-5.772676468E-1,-2.748893499E-1,-5.620723963E-1
1.712303834E0,-5.546656251E-1,-2.498438805E-1,-5.461899042E-1
1.714304667E0,-5.204572082E-1,-2.217440903E-1,-5.351943374E-1
1.716305500E0,-4.923573732E-1,-1.985312104E-1,-5.339725614E-1
1.718305466E0,-4.789183438E-1,-1.728748679E-1,-5.321399570E-1
1.720305432E0,-4.392121136E-1,-1.197295859E-1,-5.345834494E-1
1.722305398E0,-4.349360466E-1,-1.020144969E-1,-5.400812626E-1
1.724305364E0,-4.129449129E-1,-5.436700583E-2,-5.559637547E-1
1.726305330E0,-3.976732790E-1,-2.443460980E-3,-5.767331719E-1
1.728304430E0,-3.824016452E-1,3.176499158E-2,-5.834526420E-1
1.730303563E0,-3.952298164E-1,8.491026610E-2,-6.201046109E-1
1.732303596E0,-3.842342496E-1,1.490511149E-1,-6.506478190E-1
1.734303629E0,-3.848451078E-1,1.802052408E-1,-6.646977663E-1
1.736303662E0,-4.172209501E-1,2.327396572E-1,-7.044039965E-1
1.738303695E0,-4.276056588E-1,2.926044464E-1,-7.422776222E-1
1.740303728E0,-4.245513380E-1,3.268128932E-1,-7.599927187E-1
1.742303761E0,-4.471533597E-1,3.860668242E-1,-8.009206653E-1
1.744303794E0,-4.746423066E-1,4.379903674E-1,-8.387943506E-1
1.746303794E0,-4.752531648E-1,4.654793143E-1,-8.583420515E-1
1.748304627E0,-4.984660447E-1,5.222898126E-1,-9.004917145E-1
1.750304593E0,-5.338962078E-1,5.723807216E-1,-9.389762282E-1
1.752304559E0,-5.418374538E-1,6.017022729E-1,-9.615782499E-1
1.754304525E0,-5.528330207E-1,6.646214128E-1,-9.994518757E-1
1.756304491E0,-5.974262357E-1,7.189884186E-1,-1.038547277E0
1.758304457E0,-6.102544069E-1,7.562511563E-1,-1.058094978E0
1.760304423E0,-6.377432942E-1,8.222246170E-1,-1.089249134E0
1.762304423E0,-6.658431292E-1,9.010262489E-1,-1.121624947E0
1.764304456E0,-6.768386960E-1,9.486737251E-1,-1.137507439E0
1.766304489E0,-7.134906054E-1,1.047633886E0,-1.167439818E0
1.768303655E0,-7.238753438E-1,1.152091861E0,-1.196761370E0
1.770302821E0,-7.379252315E-1,1.193019867E0,-1.214476466E0
1.772301987E0,-7.843509912E-1,1.273043156E0,-1.241354585E0
1.774302020E0,-7.898487449E-1,1.361618638E0,-1.262123942E0
1.776302053E0,-8.100073338E-1,1.383609772E0,-1.277395606E0
1.778302086E0,-8.252789378E-1,1.442863703E0,-1.302441120E0
1.780302086E0,-8.503243923E-1,1.510669708E0,-1.326264858E0
1.782302086E0,-8.741481900E-1,1.534493446E0,-1.336649537E0
1.784302086E0,-8.778133392E-1,1.593747377E0,-1.356808066E0
1.786302086E0,-9.059131742E-1,1.658499122E0,-1.376355767E0
1.788302952E0,-9.279043078E-1,1.695761919E0,-1.391627431E0
1.790303818E0,-9.437867999E-1,1.789224267E0,-1.419116378E0
1.792303784E0,-9.413433671E-1,1.907732129E0,-1.443550944E0
1.794303750E0,-9.786061049E-1,1.930334210E0,-1.460044265E0
1.796303716E0,-1.009760261E0,1.982868552E0,-1.491809249E0
1.798303682E0,-1.051909924E0,2.012190104E0,-1.524185181E0
1.800303648E0,-1.064127207E0,2.013411760E0,-1.540678501E0
1.802303614E0,-1.084285855E0,1.999361992E0,-1.577330470E0
1.804303580E0,-1.128268123E0,1.951103568E0,-1.615814924E0
1.806303546E0,-1.153924465E0,1.901623487E0,-1.631086588E0
1.808302679E0,-1.158200502E0,1.877188921E0,-1.673847079E0
1.810301812E0,-1.192408919E0,1.822211027E0,-1.711109877E0
1.812300978E0,-1.182635069E0,1.809993744E0,-1.728824973E0
1.814300144E0,-1.173472166E0,1.796554685E0,-1.767920375E0
1.816300177E0,-1.185078621E0,1.788613439E0,-1.804572344E0
1.818300210E0,-1.156367898E0,1.783726573E0,-1.835726380E0
1.820300243E0,-1.142318010E0,1.775174379E0,-1.849776268E0
1.822300276E0,-1.136209369E0,1.758070230E0,-1.878486991E0
1.824300276E0,-1.124602914E0,1.724472642E0,-1.895591259E0
1.826300242E0,-1.098335743E0,1.714087844E0,-1.897423863E0
1.828301075E0,-1.044579625E0,1.684766293E0,-1.904143333E0
1.830301908E0,-1.039692640E0,1.632231951E0,-1.905365109E0
1.832302741E0,-1.010982037E0,1.616960287E0,-1.895591259E0
1.834302707E0,-9.511171579E-1,1.562593341E0,-1.875432611E0
1.836302673E0,-9.089674950E-1,1.511280656E0,-1.847332835E0
1.838302639E0,-8.979719281E-1,1.483791709E0,-1.826563478E0
1.840302639E0,-8.576548100E-1,1.430035591E0,-1.782581091E0
1.842302672E0,-8.130616546E-1,1.372003317E0,-1.730046749E0
1.844302705E0,-7.849618196E-1,1.346346974E0,-1.695838332E0
1.846302738E0,-7.464773059E-1,1.301142931E0,-1.631086588E0
1.848301904E0,-7.189884186E-1,1.281595230E0,-1.593212962E0
1.850301070E0,-6.707300544E-1,1.230282545E0,-1.516854763E0
1.852300236E0,-6.285803318E-1,1.193019867E0,-1.432555318E0
1.854299402E0,-6.108652353E-1,1.140485406E0,-1.392238259E0
1.856299202E0,-5.619960427E-1,1.139874578E0,-1.305495381E0
1.858299202E0,-5.265658498E-1,1.103222609E0,-1.224861145E0
1.860299202E0,-4.862487316E-1,1.081231475E0,-1.144837856E0
1.862299202E0,-4.575380683E-1,1.071457624E0,-1.106964231E0
1.864299202E0,-4.007275999E-1,1.045801282E0,-1.031827807E0
1.866299202E0,-3.701843321E-1,1.009149432E0,-9.676868916E-1
1.868300068E0,-3.420845270E-1,1.003040791E0,-9.347001910E-1
1.870300934E0,-3.042109013E-1,9.590584636E-1,-8.723919392E-1
1.872301767E0,-2.571742535E-1,9.175195694E-1,-8.198575377E-1
1.874302600E0,-2.425135076E-1,8.918632865E-1,-7.923685908E-1
1.876302566E0,-2.254092693E-1,8.368853927E-1,-7.489971519E-1
1.878302532E0,-1.802052408E-1,7.819074988E-1,-7.025713921E-1
1.880302498E0,-1.533271819E-1,7.574729323E-1,-6.818019748E-1
1.882302464E0,-1.288925707E-1,7.012733221E-1,-6.469826698E-1
1.884302430E0,-1.026253626E-1,6.401867867E-1,-6.097198725E-1
1.886302430E0,-9.468411654E-2,6.047565937E-1,-5.956699848E-1
1.888301563E0,-7.757988572E-2,5.491678715E-1,-5.700136423E-1
1.890301596E0,-6.597344577E-2,4.911356568E-1,-5.400812626E-1
1.892301629E0,-4.459316283E-2,4.673119187E-1,-5.284748077E-1
1.894301662E0,-3.909537569E-2,4.239404798E-1,-5.119814277E-1
1.896301695E0,-3.481931984E-2,3.842342496E-1,-4.887685478E-1
1.898301728E0,-2.199114859E-2,3.720169365E-1,-4.789946973E-1
1.900301761E0,-1.588249579E-2,3.414736688E-1,-4.637230933E-1
1.902301761E0,-1.710422710E-2,3.298672438E-1,-4.447862506E-1
1.904301727E0,-2.443460980E-3,3.316998184E-1,-4.368450046E-1
1.906301693E0,-1.221730490E-3,3.329215646E-1,-4.246276915E-1
1.908302526E0,-7.330383174E-3,3.524692357E-1,-4.142429829E-1
1.910303359E0,1.527163107E-2,3.817907870E-1,-4.087451994E-1
1.912304192E0,-3.054326167E-3,4.105014503E-1,-4.056908786E-1
1.914305025E0,1.649336144E-2,4.734205604E-1,-4.044691622E-1
1.916305225E0,2.199114859E-2,5.021312237E-1,-4.075234830E-1
1.918305225E0,9.773843922E-3,5.510004759E-1,-4.166864455E-1
1.920305225E0,1.832595794E-3,5.992587805E-1,-4.270711541E-1
1.922305225E0,1.160643995E-2,6.285803318E-1,-4.325689375E-1
1.924305225E0,2.565634064E-2,6.945537925E-1,-4.521166384E-1
1.926305225E0,1.282817032E-2,7.330383062E-1,-4.728860557E-1
1.928304358E0,1.038470957E-2,7.538077235E-1,-4.832707644E-1
1.930303491E0,6.108652335E-3,8.008443117E-1,-5.205335617E-1
1.932303491E0,6.108652451E-4,8.381071091E-1,-5.602397919E-1
1.934303491E0,-3.054326167E-3,8.576548100E-1,-5.791766047E-1
1.936303524E0,8.552113548E-3,9.034696817E-1,-6.341544986E-1
1.938303557E0,1.832595794E-3,9.388998747E-1,-6.946301460E-1
1.940303590E0,-6.108652451E-4,9.608910084E-1,-7.227299213E-1
1.942303623E0,-8.552113548E-3,9.908234477E-1,-7.935903072E-1
1.944303656E0,2.504547499E-2,1.026864529E0,-8.577311635E-1
1.946303689E0,3.054326214E-2,1.034805775E0,-8.907178640E-1
1.948304589E0,1.404990070E-2,1.043357849E0,-9.615782499E-1
1.950304589E0,3.054326214E-2,1.051909924E0,-1.028773427E0
1.952304555E0,3.359758854E-2,1.048244715E0,-1.062371016E0
1.954304521E0,2.260201424E-2,1.042747021E0,-1.126511812E0
1.956304487E0,2.809980139E-2,1.037860036E0,-1.183322310E0
1.958304453E0,3.359758854E-2,1.036027431E0,-1.209589601E0
1.960304419E0,3.909537569E-2,1.029918790E0,-1.264567375E0
1.962304385E0,2.382374369E-2,1.018312335E0,-1.316491008E0
1.964304385E0,1.649336144E-2,1.010982037E0,-1.341536403E0
1.966304385E0,3.665191587E-3,9.975429177E-1,-1.381853580E0
1.968303518E0,-1.343903504E-2,9.688322544E-1,-1.409342527E0
1.970302684E0,-7.941247895E-3,9.639453292E-1,-1.416061997E0
1.972301850E0,-2.993239649E-2,9.205739498E-1,-1.428279281E0
1.974302816E0,-4.459316283E-2,8.741481900E-1,-1.425225019E0
1.976302849E0,-3.909537569E-2,8.442157507E-1,-1.419116378E0
1.978302882E0,-6.414084882E-2,7.800748944E-1,-1.398346901E0
1.980302915E0,-1.130100712E-1,7.141014934E-1,-1.376355767E0
1.982302915E0,-1.081231460E-1,6.914994717E-1,-1.354975462E0
1.984302915E0,-1.178969890E-1,6.450737119E-1,-1.326875687E0
1.986302915E0,-1.343903542E-1,5.974262357E-1,-1.297554135E0
1.988303781E0,-1.514945775E-1,5.711590052E-1,-1.280449867E0
1.990304647E0,-1.643227488E-1,5.155702829E-1,-1.251739264E0
1.992304647E0,-1.295034289E-1,4.709770977E-1,-1.223028541E0
1.994304647E0,-1.734857261E-1,3.830125034E-1,-1.212033033E0
1.996304613E0,-1.808161139E-1,3.457497358E-1,-1.189430952E0
1.998304579E0,-1.734857261E-1,2.626720667E-1,-1.173548460E0
2.000304545E0,-1.765400618E-1,1.740965992E-1,-1.152168155E0
2.002304511E0,-1.673770845E-1,1.331686229E-1,-1.134453177E0
2.004304477E0,-1.710422635E-1,2.504547499E-2,-1.105742455E0
2.006304443E0,-1.527163088E-1,-7.330382615E-2,-1.069701433E0
2.008303543E0,-1.459967941E-1,-1.301143020E-1,-1.048931956E0
2.010302643E0,-1.655444801E-1,-2.638937831E-1,-1.015334368E0
2.012301776E0,-1.655444801E-1,-3.243694305E-1,-9.957867265E-1
2.014300942E0,-1.899790913E-1,-4.654793143E-1,-9.530261159E-1
2.016300975E0,-2.003637999E-1,-6.029239893E-1,-9.090438485E-1
2.018301008E0,-2.101376504E-1,-7.403686643E-1,-8.687267303E-1
2.020301041E0,-2.217440903E-1,-8.124507666E-1,-8.394051790E-1
2.022301074E0,-2.364048511E-1,-9.602801800E-1,-7.807621360E-1
2.024301107E0,-2.492330223E-1,-1.097724795E0,-7.080692053E-1
2.026301140E0,-2.919935882E-1,-1.180802464E0,-6.689738035E-1
2.028302040E0,-3.304781020E-1,-1.309084177E0,-5.791766047E-1
2.030302873E0,-3.762930036E-1,-1.418429136E0,-4.783838391E-1
2.032303706E0,-3.878994286E-1,-1.459357023E0,-4.221842289E-1
2.034302739E0,-4.483750761E-1,-1.546099901E0,-3.122285008E-1
2.036302705E0,-4.801400900E-1,-1.601688623E0,-1.931097806E-1
2.038302671E0,-5.180137157E-1,-1.637118816E0,-1.362993121E-1
2.040302637E0,-5.760459304E-1,-1.669494748E0,-1.962404512E-2
2.042302637E0,-6.114761233E-1,-1.679879427E0,9.949467331E-2
2.044302637E0,-6.298020482E-1,-1.686598897E0,1.550834179E-1
2.046302670E0,-6.792821288E-1,-1.700648785E0,2.711478174E-1
2.048301836E0,-7.318165898E-1,-1.715920448E0,3.847687542E-1
2.050301002E0,-7.580837607E-1,-1.727526903E0,4.330270886E-1
2.052300168E0,-7.867944241E-1,-1.740965962E0,5.283221006E-1
2.054299334E0,-7.971791625E-1,-1.751350641E0,6.132323742E-1
2.056299234E0,-8.252789378E-1,-1.777617812E0,6.456081867E-1
2.058299267E0,-8.301658630E-1,-1.795332909E0,7.018077970E-1
2.060299300E0,-8.326093554E-1,-1.818545818E0,7.378488779E-1
2.062299300E0,-8.393288255E-1,-1.825265408E0,7.482335567E-1
2.064299300E0,-8.460483551E-1,-1.839926124E0,7.635052204E-1
2.066299300E0,-7.929030657E-1,-1.823432803E0,7.610617280E-1
2.068300166E0,-7.990117669E-1,-1.832595706E0,7.573965192E-1
2.070301032E0,-7.916813493E-1,-1.826487064E0,7.372379899E-1
2.072301898E0,-7.519751191E-1,-1.806328535E0,7.109707594E-1
2.074302731E0,-7.593054771E-1,-1.806328535E0,6.932557225E-1
2.076302697E0,-7.214318514E-1,-1.761124492E0,6.517168880E-1
2.078302663E0,-7.263187766E-1,-1.728748679E0,6.101779938E-1
2.080302629E0,-7.073819637E-1,-1.703703165E0,5.851325393E-1
2.082302595E0,-6.884451509E-1,-1.657277465E0,5.380959511E-1
2.084302561E0,-6.847799420E-1,-1.601688623E0,4.947244823E-1
2.086302527E0,-6.682865620E-1,-1.563204169E0,4.770093858E-1
2.088301627E0,-6.615670323E-1,-1.511891484E0,4.360814393E-1
2.090301627E0,-6.377432942E-1,-1.452026725E0,4.024838507E-1
2.092301660E0,-6.401867867E-1,-1.430646420E0,3.920991421E-1
2.094301693E0,-6.517932415E-1,-1.390940189E0,3.670536578E-1
2.096301726E0,-6.579018831E-1,-1.361007810E0,3.523928821E-1
2.098301759E0,-6.505714655E-1,-1.346346974E0,3.542254865E-1
2.100301792E0,-6.456845403E-1,-1.323745012E0,3.554472029E-1
2.102301825E0,-6.499606371E-1,-1.319468975E0,3.682753742E-1
2.104301858E0,-6.322455406E-1,-1.307862520E0,3.817144334E-1
2.106301858E0,-6.285803318E-1,-1.314581990E0,4.043164253E-1
2.108302691E0,-6.004805565E-1,-1.310305953E0,4.373031557E-1
2.110303524E0,-5.882632136E-1,-1.309695125E0,4.580725729E-1
2.112304357E0,-5.674937963E-1,-1.308473349E0,4.977788031E-1
2.114305190E0,-5.351179838E-1,-1.303586483E0,5.405393839E-1
2.116305290E0,-5.155702829E-1,-1.301753879E0,5.631414056E-1
2.118305256E0,-4.856378734E-1,-1.298088670E0,6.040693521E-1
2.120305222E0,-4.691445231E-1,-1.301142931E0,6.468299627E-1
2.122305222E0,-4.520402849E-1,-1.295034289E0,6.712645292E-1
2.124305255E0,-4.123340547E-1,-1.293812633E0,7.146359682E-1
2.126305288E0,-4.001167417E-1,-1.299310327E0,7.561748028E-1
2.128304454E0,-3.946189582E-1,-1.302364707E0,7.757225037E-1
2.130303620E0,-3.866777122E-1,-1.313360333E0,8.111526966E-1
2.132303653E0,-3.671300113E-1,-1.333518863E0,8.435285687E-1
2.134303686E0,-3.628539443E-1,-1.340849161E0,8.606327772E-1
2.136303719E0,-3.634648323E-1,-1.370781660E0,8.868999481E-1
2.138303752E0,-3.494149148E-1,-1.400103092E0,8.978955746E-1
2.140303752E0,-3.597996235E-1,-1.419039965E0,8.997281194E-1
2.142303752E0,-3.677408695E-1,-1.436144233E0,8.887325525E-1
2.144303752E0,-3.921754956E-1,-1.449583173E0,8.636870980E-1
2.146303752E0,-3.964515328E-1,-1.456302762E0,8.429176807E-1
2.148304618E0,-4.263839424E-1,-1.522276163E0,7.616726160E-1
2.150304618E0,-4.746423066E-1,-1.569312811E0,6.639341712E-1
2.152304584E0,-5.033529401E-1,-1.588249683E0,6.168975234E-1
2.154304550E0,-5.369505286E-1,-1.616349459E0,5.063309073E-1
2.156304516E0,-5.876523852E-1,-1.660942554E0,3.908773959E-1
2.158304482E0,-5.998696685E-1,-1.676825047E0,3.377321362E-1
2.160304448E0,-6.579018831E-1,-1.725694299E0,2.418262810E-1
2.162304414E0,-6.786713004E-1,-1.766011477E0,1.587486118E-1
2.164304380E0,-7.238753438E-1,-1.805106759E0,1.220966876E-1
2.166304346E0,-7.391469479E-1,-1.850921750E0,6.406449527E-2
2.168303479E0,-8.038986921E-1,-1.944384098E0,2.008219436E-2
2.170302645E0,-8.197811842E-1,-1.984701157E0,5.421428941E-3
2.172301811E0,-8.594874144E-1,-2.070833206E0,-8.017606102E-3
2.174301844E0,-8.643743396E-1,-2.143526077E0,-9.850202128E-3
2.176301877E0,-8.881980777E-1,-2.194227934E0,-9.239336476E-3
2.178301910E0,-9.150761366E-1,-2.274251223E0,1.145372284E-3
2.180301943E0,-9.260717034E-1,-2.343279123E0,2.619084716E-2
2.182301976E0,-9.187413454E-1,-2.387872219E0,4.146247730E-2
2.184301976E0,-9.358455539E-1,-2.414750338E0,4.573853686E-2
2.186301942E0,-9.236282706E-1,-2.444682598E0,5.612324551E-2
2.188302775E0,-9.382890463E-1,-2.476447821E0,5.245805159E-2
2.190303608E0,-9.309586287E-1,-2.480723858E0,4.940372705E-2
2.192303574E0,-9.382890463E-1,-2.492941141E0,3.962988406E-2
2.194303540E0,-9.224064946E-1,-2.482556343E0,2.130392566E-2
2.196303506E0,-9.309586287E-1,-2.484999895E0,1.153008174E-2
2.198303472E0,-9.254608750E-1,-2.469728231E0,-9.239336476E-3
2.200303472E0,-9.071348906E-1,-2.430632830E0,-3.428481147E-2
2.202303505E0,-8.998045325E-1,-2.409863472E0,-4.528038576E-2
2.204303538E0,-8.741481900E-1,-2.359772444E0,-6.482807547E-2
2.206303571E0,-8.411614299E-1,-2.297464132E0,-8.743008971E-2
2.208302737E0,-8.356636763E-1,-2.269975185E0,-9.903652966E-2
2.210301903E0,-8.038986921E-1,-2.197893143E0,-1.167516187E-1
2.212301069E0,-7.819074988E-1,-2.160630465E0,-1.253037304E-1
2.214300235E0,-7.586946487E-1,-2.084882975E0,-1.436296850E-1
2.216300268E0,-7.067710757E-1,-1.996307611E0,-1.534035355E-1
2.218300268E0,-6.798930168E-1,-1.910786510E0,-1.686751693E-1
2.220300268E0,-6.420193911E-1,-1.855197787E0,-1.735620946E-1
2.222300268E0,-6.200281978E-1,-1.772730947E0,-1.870011240E-1
2.224300268E0,-5.577199459E-1,-1.667662144E0,-1.955532432E-1
2.226300268E0,-5.247332454E-1,-1.608408213E0,-1.973858327E-1
2.228301134E0,-4.990769029E-1,-1.501506805E0,-1.992184222E-1
2.230301967E0,-4.208861589E-1,-1.382998943E0,-2.059379518E-1
2.232302800E0,-3.970624208E-1,-1.324966669E0,-2.071596831E-1
2.234302766E0,-3.597996235E-1,-1.220508814E0,-2.034944892E-1
2.236302732E0,-3.323107064E-1,-1.119105101E0,-2.065488100E-1
2.238302698E0,-3.005456924E-1,-1.066570759E0,-2.059379518E-1
2.240302664E0,-2.535090744E-1,-9.663888216E-1,-2.004401535E-1
2.242302630E0,-2.131919712E-1,-8.576548100E-1,-1.955532432E-1
2.244302596E0,-1.759291887E-1,-7.984008789E-1,-1.931097806E-1
2.246302596E0,-1.258382350E-1,-7.128797174E-1,-1.839468032E-1
2.248301762E0,-5.192354694E-2,-6.175847650E-1,-1.723403633E-1
2.250300928E0,-4.642575979E-2,-5.833762884E-1,-1.698969007E-1
2.252300094E0,-8.552113548E-3,-5.057964325E-1,-1.540143937E-1
2.254299260E0,8.063421398E-2,-4.245513380E-1,-1.369101703E-1
2.256298493E0,9.346238524E-2,-3.964515328E-1,-1.277471930E-1
2.258298526E0,1.056796908E-1,-3.323107064E-1,-1.118647009E-1
2.260298559E0,1.612684280E-1,-2.614503205E-1,-8.865182102E-2
2.262298559E0,1.881465018E-1,-2.309070677E-1,-8.009970188E-2
2.264298525E0,2.400700450E-1,-1.612684280E-1,-6.116288155E-2
2.266298491E0,2.302961946E-1,-1.203404516E-1,-4.222606122E-2
2.268299324E0,2.687807083E-1,-8.857546002E-2,-2.939788997E-2
2.270300157E0,3.029891551E-1,-5.009094998E-2,-1.473712362E-2
2.272300990E0,3.268128932E-1,-1.343903504E-2,3.588833380E-3
2.274301823E0,3.555235863E-1,1.527163107E-2,8.475755341E-3
2.276301789E0,3.726277947E-1,3.604105115E-2,2.374738641E-2
2.278301789E0,4.153883755E-1,6.230825558E-2,4.024074972E-2
2.280301822E0,4.251621962E-1,8.124507964E-2,4.757113010E-2
2.282301855E0,4.636467099E-1,1.172861308E-1,5.795583874E-2
2.284301888E0,4.386012554E-1,1.123992056E-1,6.834054738E-2
2.286301921E0,4.599815309E-1,1.301143020E-1,7.078400999E-2
2.288301087E0,4.538728893E-1,1.472185254E-1,7.811439037E-2
2.290301120E0,4.850270152E-1,1.747074574E-1,8.727737516E-2
2.292301153E0,4.856378734E-1,1.808161139E-1,8.972083032E-2
2.294301186E0,4.838052690E-1,1.973094791E-1,9.521862119E-2
2.296301186E0,4.850270152E-1,2.107485086E-1,1.025490016E-1
2.298301186E0,4.893030524E-1,2.186897546E-1,1.062141955E-1
2.300301186E0,4.825835526E-1,2.260201424E-1,1.092685238E-1
2.302301186E0,5.088507533E-1,2.504547536E-1,1.214858219E-1
2.304301186E0,5.021312237E-1,2.461786866E-1,1.196532324E-1
2.306301186E0,5.161811113E-1,2.516764700E-1,1.251510233E-1
2.308302019E0,5.027421117E-1,2.516764700E-1,1.294270754E-1
2.310302852E0,5.094616413E-1,2.590068579E-1,1.275944710E-1
2.312303685E0,5.283984542E-1,2.632829249E-1,1.294270754E-1
2.314304518E0,5.222898126E-1,2.596177161E-1,1.343140006E-1
2.316305284E0,5.296201706E-1,2.651155293E-1,1.337031275E-1
2.318305250E0,5.259549618E-1,2.608394623E-1,1.337031275E-1
2.320305216E0,5.387831330E-1,2.608394623E-1,1.312596649E-1
2.322305182E0,5.473352671E-1,2.620611787E-1,1.300379336E-1
2.324305182E0,5.571091175E-1,2.669481039E-1,1.220966876E-1
2.326305215E0,5.552765131E-1,2.608394623E-1,1.080467924E-1
2.328304381E0,5.473352671E-1,2.516764700E-1,9.949467331E-2
2.330303547E0,5.400048494E-1,2.443460971E-1,8.483391255E-2
2.332303580E0,5.369505286E-1,2.400700450E-1,7.017314434E-2
2.334303613E0,5.204572082E-1,2.290744632E-1,6.039930135E-2
2.336303646E0,5.247332454E-1,2.186897546E-1,4.329507425E-2
2.338303679E0,5.204572082E-1,2.028072625E-1,2.680171281E-2
2.340303679E0,5.387831330E-1,2.113593817E-1,2.496911772E-2
2.342303645E0,5.051855445E-1,1.808161139E-1,1.030835137E-2
2.344303611E0,5.222898126E-1,1.637118906E-1,7.864889689E-3
2.346303577E0,5.088507533E-1,1.496619880E-1,3.588833380E-3
2.348304410E0,4.917465150E-1,1.258382350E-1,4.810563754E-3
2.350304376E0,4.972442985E-1,1.069014147E-1,1.519527286E-2
2.352304342E0,4.795292318E-1,8.491026610E-2,1.947133057E-2
2.354304308E0,4.636467099E-1,5.375614017E-2,3.229949996E-2
2.356304308E0,4.593706727E-1,2.687807009E-2,5.612324551E-2
2.358304341E0,4.489859641E-1,1.038470957E-2,6.467536092E-2
2.360304374E0,4.447098970E-1,-1.771509275E-2,9.399688989E-2
2.362304407E0,4.178318381E-1,-5.314527452E-2,1.233184189E-1
2.364304440E0,4.043927789E-1,-6.780604273E-2,1.392009109E-1
2.366304473E0,4.111123085E-1,-7.391469181E-2,1.752419621E-1
2.368303639E0,3.885102868E-1,-9.040805697E-2,2.070069611E-1
2.370302805E0,3.762930036E-1,-9.590584040E-2,2.222785950E-1
2.372301971E0,3.475823104E-1,-1.099557430E-1,2.503784001E-1
2.374301971E0,3.310889602E-1,-1.056796908E-1,2.766456008E-1
2.376301971E0,3.090978265E-1,-1.014036313E-1,3.010801971E-1
2.378301971E0,3.029891551E-1,-9.834930301E-2,3.139083683E-1
2.380301971E0,2.822197378E-1,-9.162978828E-2,3.334560692E-1
2.382301971E0,2.382374406E-1,-8.674286306E-2,3.536146283E-1
2.384301971E0,2.370157093E-1,-7.635815442E-2,3.585015535E-1
2.386301937E0,2.247984111E-1,-6.658431143E-2,3.743840456E-1
2.388302770E0,2.040289938E-1,-5.131268129E-2,3.878230751E-1
2.390303603E0,2.076941878E-1,-3.359758854E-2,3.945426047E-1
2.392303569E0,1.936442852E-1,-2.015855350E-2,4.018729627E-1
2.394303535E0,2.015855312E-1,3.665191587E-3,4.024838507E-1
2.396303501E0,1.912008226E-1,8.552113548E-3,4.030947089E-1
2.398303467E0,1.948660165E-1,3.481931984E-2,4.024838507E-1
2.400303433E0,1.740965992E-1,3.970624134E-2,3.920991421E-1
2.402303433E0,1.789835095E-1,4.703662544E-2,3.878230751E-1
2.404303466E0,1.832595766E-1,5.742133409E-2,3.835470080E-1
2.406303499E0,1.789835095E-1,7.330382615E-2,3.713297248E-1
2.408302665E0,1.893682331E-1,8.429940045E-2,3.664427996E-1
2.410301831E0,2.064724565E-1,9.590584040E-2,3.548363447E-1
2.412300997E0,2.064724565E-1,1.014036313E-1,3.481168449E-1
2.414300163E0,1.960877478E-1,1.081231460E-1,3.334560692E-1
2.416300096E0,2.021963894E-1,1.197295859E-1,3.206278980E-1
2.418300096E0,2.095267773E-1,1.295034289E-1,3.090214431E-1
2.420300062E0,2.113593817E-1,1.319468915E-1,3.023019433E-1
2.422300028E0,1.844813079E-1,1.276708394E-1,2.906954885E-1
2.424299994E0,1.789835095E-1,1.307251602E-1,2.778673172E-1
2.426299960E0,1.777617931E-1,1.295034289E-1,2.729803920E-1
2.428300793E0,1.820378453E-1,1.276708394E-1,2.680934966E-1
2.430301626E0,1.704314053E-1,1.172861308E-1,2.558761835E-1
2.432302459E0,1.612684280E-1,1.123992056E-1,2.509892583E-1
2.434302459E0,1.288925707E-1,9.101892263E-2,2.461023331E-1
2.436302492E0,1.166752651E-1,7.757988572E-2,2.393828183E-1
2.438302525E0,1.111774743E-1,6.719517708E-2,2.387719452E-1
2.440302558E0,5.619960278E-2,4.092797264E-2,2.326633036E-1
2.442302591E0,6.108652428E-2,4.214970022E-2,2.357176244E-1
2.444302624E0,4.153883830E-2,2.565634064E-2,2.332741618E-1
2.446302657E0,3.359758854E-2,1.466076635E-2,2.332741618E-1
2.448301823E0,-4.214970022E-2,-1.527163107E-2,2.338850349E-1
2.450300989E0,-1.954768784E-2,-7.941247895E-3,2.387719452E-1
2.452300122E0,-4.337143153E-2,-3.787364438E-2,2.406045496E-1
2.454299255E0,-8.429940045E-2,-5.558873713E-2,2.424371392E-1
2.456298355E0,-9.101892263E-2,-5.375614017E-2,2.448806018E-1
2.458298355E0,-1.264491081E-1,-7.635815442E-2,2.485457957E-1
2.460298355E0,-1.496619880E-1,-9.773843735E-2,2.479349375E-1
2.462298355E0,-1.588249654E-1,-1.044579595E-1,2.485457957E-1
2.464298321E0,-2.199114859E-1,-1.404990107E-1,2.467132062E-1
2.466298287E0,-1.893682331E-1,-1.325577646E-1,2.461023331E-1
2.468299120E0,-2.070833147E-1,-1.514945775E-1,2.479349375E-1
2.470299953E0,-2.284636050E-1,-1.692096740E-1,2.436588705E-1
2.472300786E0,-2.193006277E-1,-1.740965992E-1,2.406045496E-1
2.474301619E0,-2.480112910E-1,-1.960877478E-1,2.363284975E-1
2.476301685E0,-2.541199327E-1,-2.162462920E-1,2.308306992E-1
2.478301651E0,-2.864958048E-1,-2.492330223E-1,2.180025280E-1
2.480301651E0,-2.864958048E-1,-2.571742535E-1,2.180025280E-1
2.482301684E0,-2.797762752E-1,-2.742784917E-1,2.125047445E-1
2.484301717E0,-2.858849466E-1,-3.072652221E-1,2.039526403E-1
2.486301750E0,-2.809980214E-1,-3.188716471E-1,1.990657151E-1
2.488300916E0,-3.139847219E-1,-3.628539443E-1,1.874592751E-1
2.490300949E0,-2.748893499E-1,-3.750712574E-1,1.795180291E-1
2.492300982E0,-2.761110961E-1,-3.897320330E-1,1.758528352E-1
2.494301015E0,-2.742784917E-1,-4.153883755E-1,1.673007160E-1
2.496301015E0,-2.700024247E-1,-4.331034720E-1,1.569160074E-1
2.498300981E0,-2.602286041E-1,-4.410447180E-1,1.508073509E-1
2.500300947E0,-2.425135076E-1,-4.483750761E-1,1.410335153E-1
2.502300913E0,-2.382374406E-1,-4.593706727E-1,1.269836128E-1
2.504300879E0,-2.223549485E-1,-4.538728893E-1,1.202640980E-1
2.506300845E0,-1.936442852E-1,-4.459316432E-1,1.080467924E-1
2.508301678E0,-1.795943826E-1,-4.453207552E-1,9.582948685E-2
2.510302511E0,-1.612684280E-1,-4.361577928E-1,9.033169597E-2
2.512303377E0,-1.337794960E-1,-4.166100919E-1,7.872525603E-2
2.514304277E0,-1.032362282E-1,-3.885102868E-1,7.017314434E-2
2.516305210E0,-1.026253626E-1,-3.787364662E-1,6.589708477E-2
2.518305243E0,-8.002334833E-2,-3.469714522E-1,5.734497309E-2
2.520305276E0,-3.115412779E-2,-2.987131178E-1,4.757113010E-2
2.522305309E0,-1.282817032E-2,-2.687807083E-1,4.757113010E-2
2.524305342E0,-6.108652335E-3,-2.339613885E-1,3.779728711E-2
2.526305375E0,2.382374369E-2,-1.893682331E-1,3.229949996E-2
2.528304541E0,4.642575979E-2,-1.649336219E-1,2.802344225E-2
2.530303674E0,4.337143153E-2,-1.240056455E-1,1.702786796E-2
2.532303674E0,9.590584040E-2,-6.291911751E-2,1.763873361E-2
2.534303674E0,1.123992056E-1,-3.970624134E-2,1.091921609E-2
2.536303674E0,1.417207420E-1,5.497787148E-3,-6.872233935E-4
2.538303674E0,1.197295859E-1,2.748893574E-2,-5.574145354E-3
2.540303674E0,1.722639948E-1,7.269296050E-2,-1.046106778E-2
2.542303640E0,1.930334121E-1,1.038470939E-1,-2.206750773E-2
2.544303606E0,2.125810981E-1,1.325577646E-1,-3.184135258E-2
2.546303572E0,2.247984111E-1,1.484402567E-1,-3.245221451E-2
2.548304405E0,2.376265824E-1,1.710422635E-1,-4.772384837E-2
2.550304371E0,2.376265824E-1,1.936442852E-1,-5.077817291E-2
2.552304337E0,2.296853364E-1,2.040289938E-1,-5.322163552E-2
2.554304303E0,2.272418737E-1,2.351831198E-1,-5.749769136E-2
2.556304269E0,1.997529417E-1,2.498438805E-1,-5.933028832E-2
2.558304269E0,1.600466967E-1,2.474004179E-1,-6.055201590E-2
2.560304269E0,1.411098689E-1,2.400700450E-1,-5.994115397E-2
2.562304302E0,8.124507964E-2,2.046398520E-1,-5.749769136E-2
2.564304335E0,2.809980139E-2,1.576032341E-1,-5.322163552E-2
2.566304368E0,2.932153270E-2,1.398881376E-1,-5.199990422E-2
2.568303534E0,-2.138028294E-2,8.796459436E-2,-4.894557595E-2
2.570302700E0,-4.520402849E-2,5.742133409E-2,-4.222606122E-2
2.572301866E0,-6.963863969E-2,3.665191587E-3,-2.939788997E-2
2.574300999E0,-1.380555481E-1,-7.696902007E-2,-2.328923717E-2
2.576300965E0,-1.789835095E-1,-1.356120855E-1,-4.352414981E-3
2.578300931E0,-2.040289938E-1,-1.679879427E-1,-1.298088697E-3
2.580300897E0,-2.107485086E-1,-2.186897546E-1,1.580613852E-2
2.582300863E0,-2.437352389E-1,-2.736676335E-1,2.924517356E-2
2.584300829E0,-2.730567753E-1,-3.158173263E-1,3.474296257E-2
2.586300795E0,-2.956587672E-1,-3.762930036E-1,4.207334295E-2
2.588301628E0,-2.858849466E-1,-4.135557711E-1,4.879286140E-2
2.590302494E0,-3.164281845E-1,-4.550946057E-1,5.123632401E-2
2.592302527E0,-3.390302062E-1,-5.088507533E-1,5.184718594E-2
2.594302560E0,-3.304781020E-1,-5.516113043E-1,5.062545836E-2
2.596302593E0,-3.396410644E-1,-5.754350424E-1,5.306891724E-2
2.598302626E0,-3.219259977E-1,-5.962044597E-1,5.062545836E-2
2.600302659E0,-3.231477141E-1,-6.310238242E-1,4.879286140E-2
2.602302692E0,-3.042109013E-1,-6.334672570E-1,4.696026444E-2
2.604302725E0,-3.042109013E-1,-6.499606371E-1,4.634939879E-2
2.606302758E0,-2.852740586E-1,-6.462954283E-1,4.268420860E-2
2.608301891E0,-2.779437006E-1,-6.420193911E-1,4.329507425E-2
2.610301024E0,-2.541199327E-1,-6.359107494E-1,3.840815276E-2
2.612300157E0,-2.376265824E-1,-6.053674817E-1,3.596469015E-2
2.614299290E0,-2.559525371E-1,-6.023131609E-1,3.413209692E-2
2.616298423E0,-2.193006277E-1,-5.534439087E-1,3.352123126E-2
2.618298423E0,-2.400700450E-1,-5.283984542E-1,2.924517356E-2
2.620298423E0,-2.321287990E-1,-4.941899776E-1,2.924517356E-2
2.622298389E0,-2.296853364E-1,-4.355469346E-1,1.763873361E-2
2.624298355E0,-2.113593817E-1,-3.799581826E-1,1.145372284E-3
2.626298321E0,-2.119702399E-1,-3.585779071E-1,-9.239336476E-3
2.628299154E0,-2.376265824E-1,-3.084869385E-1,-2.451096848E-2
2.630299987E0,-2.498438805E-1,-2.626720667E-1,-3.733913973E-2
2.632300820E0,-2.382374406E-1,-2.364048511E-1,-4.650211707E-2
2.634301653E0,-2.394591719E-1,-1.942551434E-1,-6.238461286E-2
